"index","subj_idx","Sex","BirthYear","Education","shapeFileName","shape","shapeEn","shapeName","shapeNameEn","characterName","characterNameEn","misNum","correctResp","subjResp","series","condition","block","blockType","trial","response","acc","rt","time_elapsed"
"sv020002","sv020002","male",2000,"university","Tri.png","Tri",NA,"正方形","正方形",NA,NA,2,"m","null",0,"mismatch",NA,"prac",NA,0,0,"null",375296
"sv020002","sv020002","male",2000,"university","Pen.png","Pen",NA,"三角形","三角形",NA,NA,2,"m","null",0,"mismatch",NA,"prac",NA,0,0,"null",379010
"sv020002","sv020002","male",2000,"university","Tri.png","Tri",NA,"三角形","三角形",NA,NA,2,"n","null",0,"match",NA,"prac",NA,0,0,"null",382598
"sv020002","sv020002","male",2000,"university","Squ.png","Squ",NA,"三角形","三角形",NA,NA,2,"m","null",0,"mismatch",NA,"prac",NA,0,0,"null",386389
"sv020002","sv020002","male",2000,"university","Tri.png","Tri",NA,"五边形","五边形",NA,NA,2,"m","null",0,"mismatch",NA,"prac",NA,0,0,"null",389972
"sv020002","sv020002","male",2000,"university","Pen.png","Pen",NA,"三角形","三角形",NA,NA,2,"m","null",0,"mismatch",NA,"prac",NA,0,0,"null",393674
"sv020002","sv020002","male",2000,"university","Squ.png","Squ",NA,"正方形","正方形",NA,NA,2,"n","null",0,"match",NA,"prac",NA,0,0,"null",397648
"sv020002","sv020002","male",2000,"university","Tri.png","Tri",NA,"三角形","三角形",NA,NA,2,"n","null",0,"match",NA,"prac",NA,0,0,"null",401336
"sv020002","sv020002","male",2000,"university","Tri.png","Tri",NA,"三角形","三角形",NA,NA,2,"n","n",0,"match",NA,"prac",NA,1,1,"619.1",404380
"sv020002","sv020002","male",2000,"university","Pen.png","Pen",NA,"正方形","正方形",NA,NA,2,"m","m",0,"mismatch",NA,"prac",NA,1,1,"610.4",407404
"sv020002","sv020002","male",2000,"university","Tri.png","Tri",NA,"三角形","三角形",NA,NA,2,"n","n",0,"match",NA,"prac",NA,1,1,"516",410356
"sv020002","sv020002","male",2000,"university","Squ.png","Squ",NA,"五边形","五边形",NA,NA,2,"m","n",0,"mismatch",NA,"prac",NA,0,0,"775.7",413565
"sv020002","sv020002","male",2000,"university","Cir.png","Cir",NA,"三角形","三角形",NA,NA,2,"m","n",0,"mismatch",NA,"prac",NA,0,0,"1327.4",417316
"sv020002","sv020002","male",2000,"university","Tri.png","Tri",NA,"圆形","圆形",NA,NA,2,"m","n",0,"mismatch",NA,"prac",NA,0,0,"462.6",420196
"sv020002","sv020002","male",2000,"university","Pen.png","Pen",NA,"三角形","三角形",NA,NA,2,"m","m",0,"mismatch",NA,"prac",NA,1,1,"750.1",423364
"sv020002","sv020002","male",2000,"university","Cir.png","Cir",NA,"三角形","三角形",NA,NA,2,"m","m",0,"mismatch",NA,"prac",NA,1,1,"705.4",426515
"sv020002","sv020002","male",2000,"university","Tri.png","Tri",NA,"三角形","三角形",NA,NA,2,"n","n",0,"match",NA,"prac",NA,1,1,"839.4",429796
"sv020002","sv020002","male",2000,"university","Tri.png","Tri",NA,"三角形","三角形",NA,NA,2,"n","m",0,"match",NA,"prac",NA,0,0,"980.5",433203
"sv020002","sv020002","male",2000,"university","Squ.png","Squ",NA,"正方形","正方形",NA,NA,2,"n","m",0,"match",NA,"prac",NA,0,0,"1024.5",436659
"sv020002","sv020002","male",2000,"university","Tri.png","Tri",NA,"三角形","三角形",NA,NA,2,"n","n",0,"match",NA,"prac",NA,1,1,"727.4",439812
"sv020002","sv020002","male",2000,"university","Squ.png","Squ",NA,"正方形","正方形",NA,NA,2,"n","n",0,"match",NA,"prac",NA,1,1,"638.2",442884
"sv020002","sv020002","male",2000,"university","Squ.png","Squ",NA,"圆形","圆形",NA,NA,2,"m","m",0,"mismatch",NA,"prac",NA,1,1,"883.4",446195
"sv020002","sv020002","male",2000,"university","Cir.png","Cir",NA,"圆形","圆形",NA,NA,2,"n","n",0,"match",NA,"prac",NA,1,1,"924.2",449548
"sv020002","sv020002","male",2000,"university","Squ.png","Squ",NA,"正方形","正方形",NA,NA,2,"n","m",0,"match",NA,"prac",NA,0,0,"856.8",452828
"sv020002","sv020002","male",2000,"university","Cir.png","Cir",NA,"圆形","圆形",NA,NA,2,"n","m",0,"match",NA,"prac",NA,0,0,"783.1",456036
"sv020002","sv020002","male",2000,"university","Squ.png","Squ",NA,"正方形","正方形",NA,NA,2,"n","n",0,"match",NA,"prac",NA,1,1,"673.7",459139
"sv020002","sv020002","male",2000,"university","Squ.png","Squ",NA,"正方形","正方形",NA,NA,2,"n","n",0,"match",NA,"prac",NA,1,1,"801.8",462380
"sv020002","sv020002","male",2000,"university","Squ.png","Squ",NA,"圆形","圆形",NA,NA,2,"m","m",0,"mismatch",NA,"prac",NA,1,1,"1090",465883
"sv020002","sv020002","male",2000,"university","Tri.png","Tri",NA,"圆形","圆形",NA,NA,2,"m","m",0,"mismatch",NA,"prac",NA,1,1,"616.1",468924
"sv020002","sv020002","male",2000,"university","Pen.png","Pen",NA,"正方形","正方形",NA,NA,2,"m","m",0,"mismatch",NA,"prac",NA,1,1,"1117.6",472476
"sv020002","sv020002","male",2000,"university","Cir.png","Cir",NA,"三角形","三角形",NA,NA,2,"m","m",0,"mismatch",NA,"prac",NA,1,1,"573.5",475476
"sv020002","sv020002","male",2000,"university","Cir.png","Cir",NA,"圆形","圆形",NA,NA,2,"n","n",0,"match",NA,"prac",NA,1,1,"856.8",478772
"sv020002","sv020002","male",2000,"university","Squ.png","Squ",NA,"正方形","正方形",NA,NA,2,"n","m",0,"match",NA,"prac",NA,0,0,"639.1",481852
"sv020002","sv020002","male",2000,"university","Squ.png","Squ",NA,"五边形","五边形",NA,NA,2,"m","n",0,"mismatch",NA,"prac",NA,0,0,"919.4",485196
"sv020002","sv020002","male",2000,"university","Pen.png","Pen",NA,"正方形","正方形",NA,NA,2,"m","m",0,"mismatch",NA,"prac",NA,1,1,"848.1",488476
"sv020002","sv020002","male",2000,"university","Pen.png","Pen",NA,"圆形","圆形",NA,NA,2,"m","n",0,"mismatch",NA,"prac",NA,0,0,"810.5",491716
"sv020002","sv020002","male",2000,"university","Cir.png","Cir",NA,"圆形","圆形",NA,NA,2,"n","m",0,"match",NA,"prac",NA,0,0,"797.6",494932
"sv020002","sv020002","male",2000,"university","Pen.png","Pen",NA,"五边形","五边形",NA,NA,2,"n","null",0,"match",NA,"prac",NA,0,0,"null",498623
"sv020002","sv020002","male",2000,"university","Squ.png","Squ",NA,"正方形","正方形",NA,NA,2,"n","n",0,"match",NA,"prac",NA,1,1,"647.4",501692
"sv020002","sv020002","male",2000,"university","Tri.png","Tri",NA,"正方形","正方形",NA,NA,2,"m","n",0,"mismatch",NA,"prac",NA,0,0,"1126.6",505252
"sv020002","sv020002","male",2000,"university","Cir.png","Cir",NA,"三角形","三角形",NA,NA,2,"m","null",0,"mismatch",NA,"prac",NA,0,0,"null",509116
"sv020002","sv020002","male",2000,"university","Pen.png","Pen",NA,"三角形","三角形",NA,NA,2,"m","m",0,"mismatch",NA,"prac",NA,1,1,"1139.8",512676
"sv020002","sv020002","male",2000,"university","Cir.png","Cir",NA,"圆形","圆形",NA,NA,2,"n","n",0,"match",NA,"prac",NA,1,1,"689.6",515789
"sv020002","sv020002","male",2000,"university","Tri.png","Tri",NA,"圆形","圆形",NA,NA,2,"m","m",0,"mismatch",NA,"prac",NA,1,1,"756.4",518973
"sv020002","sv020002","male",2000,"university","Squ.png","Squ",NA,"五边形","五边形",NA,NA,2,"m","n",0,"mismatch",NA,"prac",NA,0,0,"1049.9",522461
"sv020002","sv020002","male",2000,"university","Tri.png","Tri",NA,"三角形","三角形",NA,NA,2,"n","n",0,"match",NA,"prac",NA,1,1,"769.4",525661
"sv020002","sv020002","male",2000,"university","Cir.png","Cir",NA,"圆形","圆形",NA,NA,2,"n","m",0,"match",NA,"prac",NA,0,0,"690.5",528781
"sv020002","sv020002","male",2000,"university","Cir.png","Cir",NA,"三角形","三角形",NA,NA,2,"m","m",0,"mismatch",NA,"prac",NA,1,1,"712.1",531916
"sv020002","sv020002","male",2000,"university","Squ.png","Squ",NA,"三角形","三角形",NA,NA,2,"m","m",0,"mismatch",NA,"prac",NA,1,1,"631.9",534981
"sv020002","sv020002","male",2000,"university","Pen.png","Pen",NA,"五边形","五边形",NA,NA,2,"n","m",0,"match",NA,"prac",NA,0,0,"845.7",538260
"sv020002","sv020002","male",2000,"university","Squ.png","Squ",NA,"五边形","五边形",NA,NA,2,"m","m",0,"mismatch",NA,"prac",NA,1,1,"1127.1",541804
"sv020002","sv020002","male",2000,"university","Cir.png","Cir",NA,"三角形","三角形",NA,NA,2,"m","n",0,"mismatch",NA,"prac",NA,0,0,"587.4",544813
"sv020002","sv020002","male",2000,"university","Squ.png","Squ",NA,"三角形","三角形",NA,NA,2,"m","m",0,"mismatch",NA,"prac",NA,1,1,"771.9",548012
"sv020002","sv020002","male",2000,"university","Cir.png","Cir",NA,"圆形","圆形",NA,NA,2,"n","null",0,"match",NA,"prac",NA,0,0,"null",551928
"sv020002","sv020002","male",2000,"university","Pen.png","Pen",NA,"五边形","五边形",NA,NA,2,"n","n",0,"match",NA,"prac",NA,1,1,"1547.9",555900
"sv020002","sv020002","male",2000,"university","Pen.png","Pen",NA,"五边形","五边形",NA,NA,2,"n","n",0,"match",NA,"prac",NA,1,1,"608.1",558932
"sv020002","sv020002","male",2000,"university","Pen.png","Pen",NA,"五边形","五边形",NA,NA,2,"n","null",0,"match",NA,"prac",NA,0,0,"null",562470
"sv020002","sv020002","male",2000,"university","Squ.png","Squ",NA,"三角形","三角形",NA,NA,2,"m","m",0,"mismatch",NA,"prac",NA,1,1,"945.9",565852
"sv020002","sv020002","male",2000,"university","Tri.png","Tri",NA,"正方形","正方形",NA,NA,2,"m","m",0,"mismatch",NA,"prac",NA,1,1,"807.3",569085
"sv020002","sv020002","male",2000,"university","Squ.png","Squ",NA,"正方形","正方形",NA,NA,2,"n","n",0,"match",NA,"prac",NA,1,1,"645.7",572149
"sv020002","sv020002","male",2000,"university","Tri.png","Tri",NA,"三角形","三角形",NA,NA,2,"n","n",0,"match",NA,"formal",NA,1,1,"820.9",601148
"sv020002","sv020002","male",2000,"university","Pen.png","Pen",NA,"五边形","五边形",NA,NA,2,"n","n",0,"match",NA,"formal",NA,1,1,"1334.7",603692
"sv020002","sv020002","male",2000,"university","Squ.png","Squ",NA,"正方形","正方形",NA,NA,2,"n","n",0,"match",NA,"formal",NA,1,1,"667.2",605572
"sv020002","sv020002","male",2000,"university","Pen.png","Pen",NA,"五边形","五边形",NA,NA,2,"n","m",0,"match",NA,"formal",NA,0,0,"780.4",607557
"sv020002","sv020002","male",2000,"university","Tri.png","Tri",NA,"五边形","五边形",NA,NA,2,"m","m",0,"mismatch",NA,"formal",NA,1,1,"953.9",609725
"sv020002","sv020002","male",2000,"university","Cir.png","Cir",NA,"正方形","正方形",NA,NA,2,"m","m",0,"mismatch",NA,"formal",NA,1,1,"886.6",611820
"sv020002","sv020002","male",2000,"university","Pen.png","Pen",NA,"五边形","五边形",NA,NA,2,"n","m",0,"match",NA,"formal",NA,0,0,"1296.6",614328
"sv020002","sv020002","male",2000,"university","Tri.png","Tri",NA,"五边形","五边形",NA,NA,2,"m","m",0,"mismatch",NA,"formal",NA,1,1,"1154",616684
"sv020002","sv020002","male",2000,"university","Cir.png","Cir",NA,"三角形","三角形",NA,NA,2,"m","m",0,"mismatch",NA,"formal",NA,1,1,"797.2",618693
"sv020002","sv020002","male",2000,"university","Tri.png","Tri",NA,"五边形","五边形",NA,NA,2,"m","m",0,"mismatch",NA,"formal",NA,1,1,"949.9",620861
"sv020002","sv020002","male",2000,"university","Pen.png","Pen",NA,"三角形","三角形",NA,NA,2,"m","m",0,"mismatch",NA,"formal",NA,1,1,"1066.9",623141
"sv020002","sv020002","male",2000,"university","Cir.png","Cir",NA,"三角形","三角形",NA,NA,2,"m","m",0,"mismatch",NA,"formal",NA,1,1,"897.4",625252
"sv020002","sv020002","male",2000,"university","Tri.png","Tri",NA,"五边形","五边形",NA,NA,2,"m","m",0,"mismatch",NA,"formal",NA,1,1,"823.2",627293
"sv020002","sv020002","male",2000,"university","Cir.png","Cir",NA,"正方形","正方形",NA,NA,2,"m","m",0,"mismatch",NA,"formal",NA,1,1,"782.1",629285
"sv020002","sv020002","male",2000,"university","Squ.png","Squ",NA,"五边形","五边形",NA,NA,2,"m","m",0,"mismatch",NA,"formal",NA,1,1,"849.9",631340
"sv020002","sv020002","male",2000,"university","Squ.png","Squ",NA,"正方形","正方形",NA,NA,2,"n","n",0,"match",NA,"formal",NA,1,1,"586.6",633140
"sv020002","sv020002","male",2000,"university","Cir.png","Cir",NA,"圆形","圆形",NA,NA,2,"n","m",0,"match",NA,"formal",NA,0,0,"497.8",634844
"sv020002","sv020002","male",2000,"university","Tri.png","Tri",NA,"三角形","三角形",NA,NA,2,"n","n",0,"match",NA,"formal",NA,1,1,"623.1",636684
"sv020002","sv020002","male",2000,"university","Pen.png","Pen",NA,"圆形","圆形",NA,NA,2,"m","m",0,"mismatch",NA,"formal",NA,1,1,"743.3",638636
"sv020002","sv020002","male",2000,"university","Pen.png","Pen",NA,"五边形","五边形",NA,NA,2,"n","m",0,"match",NA,"formal",NA,0,0,"825.6",640667
"sv020002","sv020002","male",2000,"university","Cir.png","Cir",NA,"三角形","三角形",NA,NA,2,"m","m",0,"mismatch",NA,"formal",NA,1,1,"853.5",642732
"sv020002","sv020002","male",2000,"university","Cir.png","Cir",NA,"圆形","圆形",NA,NA,2,"n","n",0,"match",NA,"formal",NA,1,1,"705.2",644644
"sv020002","sv020002","male",2000,"university","Squ.png","Squ",NA,"圆形","圆形",NA,NA,2,"m","m",0,"mismatch",NA,"formal",NA,1,1,"855.3",646708
"sv020002","sv020002","male",2000,"university","Tri.png","Tri",NA,"正方形","正方形",NA,NA,2,"m","n",0,"mismatch",NA,"formal",NA,0,0,"974.1",648891
"sv020002","sv020002","male",2000,"university","Cir.png","Cir",NA,"圆形","圆形",NA,NA,2,"n","n",0,"match",NA,"formal",NA,1,1,"712.5",650812
"sv020002","sv020002","male",2000,"university","Pen.png","Pen",NA,"五边形","五边形",NA,NA,2,"n","n",0,"match",NA,"formal",NA,1,1,"1080.9",653100
"sv020002","sv020002","male",2000,"university","Squ.png","Squ",NA,"五边形","五边形",NA,NA,2,"m","m",0,"mismatch",NA,"formal",NA,1,1,"1567.1",655894
"sv020002","sv020002","male",2000,"university","Tri.png","Tri",NA,"五边形","五边形",NA,NA,2,"m","m",0,"mismatch",NA,"formal",NA,1,1,"1582.1",658692
"sv020002","sv020002","male",2000,"university","Pen.png","Pen",NA,"五边形","五边形",NA,NA,2,"n","n",0,"match",NA,"formal",NA,1,1,"961.4",660867
"sv020002","sv020002","male",2000,"university","Squ.png","Squ",NA,"五边形","五边形",NA,NA,2,"m","m",0,"mismatch",NA,"formal",NA,1,1,"1042.9",663116
"sv020002","sv020002","male",2000,"university","Pen.png","Pen",NA,"三角形","三角形",NA,NA,2,"m","m",0,"mismatch",NA,"formal",NA,1,1,"789.9",665116
"sv020002","sv020002","male",2000,"university","Cir.png","Cir",NA,"正方形","正方形",NA,NA,2,"m","n",0,"mismatch",NA,"formal",NA,0,0,"595.5",666916
"sv020002","sv020002","male",2000,"university","Squ.png","Squ",NA,"五边形","五边形",NA,NA,2,"m","n",0,"mismatch",NA,"formal",NA,0,0,"759",668891
"sv020002","sv020002","male",2000,"university","Tri.png","Tri",NA,"三角形","三角形",NA,NA,2,"n","n",0,"match",NA,"formal",NA,1,1,"591.8",670691
"sv020002","sv020002","male",2000,"university","Tri.png","Tri",NA,"正方形","正方形",NA,NA,2,"m","m",0,"mismatch",NA,"formal",NA,1,1,"763.6",672660
"sv020002","sv020002","male",2000,"university","Tri.png","Tri",NA,"五边形","五边形",NA,NA,2,"m","m",0,"mismatch",NA,"formal",NA,1,1,"718.1",674580
"sv020002","sv020002","male",2000,"university","Pen.png","Pen",NA,"三角形","三角形",NA,NA,2,"m","m",0,"mismatch",NA,"formal",NA,1,1,"1178.5",676964
"sv020002","sv020002","male",2000,"university","Cir.png","Cir",NA,"正方形","正方形",NA,NA,2,"m","n",0,"mismatch",NA,"formal",NA,0,0,"566.8",678740
"sv020002","sv020002","male",2000,"university","Pen.png","Pen",NA,"五边形","五边形",NA,NA,2,"n","n",0,"match",NA,"formal",NA,1,1,"728.3",680683
"sv020002","sv020002","male",2000,"university","Squ.png","Squ",NA,"正方形","正方形",NA,NA,2,"n","n",0,"match",NA,"formal",NA,1,1,"587",682476
"sv020002","sv020002","male",2000,"university","Pen.png","Pen",NA,"五边形","五边形",NA,NA,2,"n","n",0,"match",NA,"formal",NA,1,1,"884.2",684571
"sv020002","sv020002","male",2000,"university","Cir.png","Cir",NA,"圆形","圆形",NA,NA,2,"n","n",0,"match",NA,"formal",NA,1,1,"604.6",686380
"sv020002","sv020002","male",2000,"university","Cir.png","Cir",NA,"三角形","三角形",NA,NA,2,"m","m",0,"mismatch",NA,"formal",NA,1,1,"579.1",688164
"sv020002","sv020002","male",2000,"university","Squ.png","Squ",NA,"正方形","正方形",NA,NA,2,"n","n",0,"match",NA,"formal",NA,1,1,"494.1",689860
"sv020002","sv020002","male",2000,"university","Cir.png","Cir",NA,"三角形","三角形",NA,NA,2,"m","m",0,"mismatch",NA,"formal",NA,1,1,"571",691635
"sv020002","sv020002","male",2000,"university","Squ.png","Squ",NA,"正方形","正方形",NA,NA,2,"n","n",0,"match",NA,"formal",NA,1,1,"544.6",693396
"sv020002","sv020002","male",2000,"university","Cir.png","Cir",NA,"三角形","三角形",NA,NA,2,"m","m",0,"mismatch",NA,"formal",NA,1,1,"576.9",695187
"sv020002","sv020002","male",2000,"university","Pen.png","Pen",NA,"五边形","五边形",NA,NA,2,"n","n",0,"match",NA,"formal",NA,1,1,"899.9",697292
"sv020002","sv020002","male",2000,"university","Cir.png","Cir",NA,"圆形","圆形",NA,NA,2,"n","n",0,"match",NA,"formal",NA,1,1,"660.2",699156
"sv020002","sv020002","male",2000,"university","Squ.png","Squ",NA,"正方形","正方形",NA,NA,2,"n","n",0,"match",NA,"formal",NA,1,1,"517.7",700884
"sv020002","sv020002","male",2000,"university","Pen.png","Pen",NA,"圆形","圆形",NA,NA,2,"m","m",0,"mismatch",NA,"formal",NA,1,1,"635.4",702724
"sv020002","sv020002","male",2000,"university","Squ.png","Squ",NA,"五边形","五边形",NA,NA,2,"m","n",0,"mismatch",NA,"formal",NA,0,0,"596.6",704532
"sv020002","sv020002","male",2000,"university","Cir.png","Cir",NA,"圆形","圆形",NA,NA,2,"n","n",0,"match",NA,"formal",NA,1,1,"704",706439
"sv020002","sv020002","male",2000,"university","Tri.png","Tri",NA,"三角形","三角形",NA,NA,2,"n","n",0,"match",NA,"formal",NA,1,1,"591.9",708244
"sv020002","sv020002","male",2000,"university","Pen.png","Pen",NA,"三角形","三角形",NA,NA,2,"m","m",0,"mismatch",NA,"formal",NA,1,1,"923.9",710372
"sv020002","sv020002","male",2000,"university","Tri.png","Tri",NA,"五边形","五边形",NA,NA,2,"m","m",0,"mismatch",NA,"formal",NA,1,1,"892.6",712476
"sv020002","sv020002","male",2000,"university","Squ.png","Squ",NA,"五边形","五边形",NA,NA,2,"m","m",0,"mismatch",NA,"formal",NA,1,1,"1140.7",714820
"sv020002","sv020002","male",2000,"university","Tri.png","Tri",NA,"正方形","正方形",NA,NA,2,"m","m",0,"mismatch",NA,"formal",NA,1,1,"962.9",716988
"sv020002","sv020002","male",2000,"university","Pen.png","Pen",NA,"五边形","五边形",NA,NA,2,"n","n",0,"match",NA,"formal",NA,1,1,"756.6",718948
"sv020002","sv020002","male",2000,"university","Tri.png","Tri",NA,"正方形","正方形",NA,NA,2,"m","n",0,"mismatch",NA,"formal",NA,0,0,"586.9",720748
"sv020002","sv020002","male",2000,"university","Squ.png","Squ",NA,"正方形","正方形",NA,NA,2,"n","n",0,"match",NA,"formal",NA,1,1,"554.1",722508
"sv020002","sv020002","male",2000,"university","Tri.png","Tri",NA,"三角形","三角形",NA,NA,2,"n","n",0,"match",NA,"formal",NA,1,1,"636.6",724356
"sv020002","sv020002","male",2000,"university","Squ.png","Squ",NA,"五边形","五边形",NA,NA,2,"m","m",0,"mismatch",NA,"formal",NA,1,1,"797.2",726364
"sv020002","sv020002","male",2000,"university","Tri.png","Tri",NA,"三角形","三角形",NA,NA,2,"n","n",0,"match",NA,"formal",NA,1,1,"446.3",728012
"sv020002","sv020002","male",2000,"university","Pen.png","Pen",NA,"五边形","五边形",NA,NA,2,"n","n",0,"match",NA,"formal",NA,1,1,"812.1",730028
"sv020002","sv020002","male",2000,"university","Squ.png","Squ",NA,"五边形","五边形",NA,NA,2,"m","m",0,"mismatch",NA,"formal",NA,1,1,"997.1",732236
"sv020002","sv020002","male",2000,"university","Pen.png","Pen",NA,"五边形","五边形",NA,NA,2,"n","n",0,"match",NA,"formal",NA,1,1,"664.6",734108
"sv020002","sv020002","male",2000,"university","Squ.png","Squ",NA,"五边形","五边形",NA,NA,2,"m","m",0,"mismatch",NA,"formal",NA,1,1,"678.6",735988
"sv020002","sv020002","male",2000,"university","Tri.png","Tri",NA,"正方形","正方形",NA,NA,2,"m","n",0,"mismatch",NA,"formal",NA,0,0,"452.4",737644
"sv020002","sv020002","male",2000,"university","Squ.png","Squ",NA,"正方形","正方形",NA,NA,2,"n","n",0,"match",NA,"formal",NA,1,1,"580.2",739436
"sv020002","sv020002","male",2000,"university","Cir.png","Cir",NA,"圆形","圆形",NA,NA,2,"n","n",0,"match",NA,"formal",NA,1,1,"597.3",741236
"sv020002","sv020002","male",2000,"university","Squ.png","Squ",NA,"正方形","正方形",NA,NA,2,"n","m",0,"match",NA,"formal",NA,0,0,"410.6",742852
"sv020002","sv020002","male",2000,"university","Pen.png","Pen",NA,"三角形","三角形",NA,NA,2,"m","m",0,"mismatch",NA,"formal",NA,1,1,"606",744660
"sv020002","sv020002","male",2000,"university","Tri.png","Tri",NA,"三角形","三角形",NA,NA,2,"n","n",0,"match",NA,"formal",NA,1,1,"529.2",746396
"sv020002","sv020002","male",2000,"university","Pen.png","Pen",NA,"五边形","五边形",NA,NA,2,"n","n",0,"match",NA,"formal",NA,1,1,"790",748388
"sv020002","sv020002","male",2000,"university","Cir.png","Cir",NA,"圆形","圆形",NA,NA,2,"n","n",0,"match",NA,"formal",NA,1,1,"592.2",750188
"sv020002","sv020002","male",2000,"university","Tri.png","Tri",NA,"三角形","三角形",NA,NA,2,"n","n",0,"match",NA,"formal",NA,1,1,"1860.2",753268
"sv020002","sv020002","male",2000,"university","Cir.png","Cir",NA,"圆形","圆形",NA,NA,2,"n","n",0,"match",NA,"formal",NA,1,1,"635",755116
"sv020002","sv020002","male",2000,"university","Tri.png","Tri",NA,"三角形","三角形",NA,NA,2,"n","n",0,"match",NA,"formal",NA,1,1,"426.3",756756
"sv020002","sv020002","male",2000,"university","Squ.png","Squ",NA,"正方形","正方形",NA,NA,2,"n","n",0,"match",NA,"formal",NA,1,1,"548.2",758508
"sv020002","sv020002","male",2000,"university","Squ.png","Squ",NA,"五边形","五边形",NA,NA,2,"m","n",0,"mismatch",NA,"formal",NA,0,0,"402.6",760124
"sv020002","sv020002","male",2000,"university","Squ.png","Squ",NA,"圆形","圆形",NA,NA,2,"m","m",0,"mismatch",NA,"formal",NA,1,1,"636.2",761973
"sv020002","sv020002","male",2000,"university","Pen.png","Pen",NA,"圆形","圆形",NA,NA,2,"m","n",0,"mismatch",NA,"formal",NA,0,0,"748.4",763932
"sv020002","sv020002","male",2000,"university","Cir.png","Cir",NA,"圆形","圆形",NA,NA,2,"n","n",0,"match",NA,"formal",NA,1,1,"450.7",765589
"sv020002","sv020002","male",2000,"university","Pen.png","Pen",NA,"圆形","圆形",NA,NA,2,"m","m",0,"mismatch",NA,"formal",NA,1,1,"596.9",767397
"sv020002","sv020002","male",2000,"university","Cir.png","Cir",NA,"三角形","三角形",NA,NA,2,"m","m",0,"mismatch",NA,"formal",NA,1,1,"668.8",769268
"sv020002","sv020002","male",2000,"university","Pen.png","Pen",NA,"五边形","五边形",NA,NA,2,"n","m",0,"match",NA,"formal",NA,0,0,"630.5",771108
"sv020002","sv020002","male",2000,"university","Pen.png","Pen",NA,"圆形","圆形",NA,NA,2,"m","m",0,"mismatch",NA,"formal",NA,1,1,"655.4",772980
"sv020002","sv020002","male",2000,"university","Cir.png","Cir",NA,"正方形","正方形",NA,NA,2,"m","m",0,"mismatch",NA,"formal",NA,1,1,"843.5",775036
"sv020002","sv020002","male",2000,"university","Squ.png","Squ",NA,"圆形","圆形",NA,NA,2,"m","m",0,"mismatch",NA,"formal",NA,1,1,"718.2",776964
"sv020002","sv020002","male",2000,"university","Pen.png","Pen",NA,"圆形","圆形",NA,NA,2,"m","m",0,"mismatch",NA,"formal",NA,1,1,"572.8",778748
"sv020002","sv020002","male",2000,"university","Squ.png","Squ",NA,"五边形","五边形",NA,NA,2,"m","m",0,"mismatch",NA,"formal",NA,1,1,"498.1",780452
"sv020002","sv020002","male",2000,"university","Pen.png","Pen",NA,"五边形","五边形",NA,NA,2,"n","m",0,"match",NA,"formal",NA,0,0,"448.8",782116
"sv020002","sv020002","male",2000,"university","Tri.png","Tri",NA,"三角形","三角形",NA,NA,2,"n","n",0,"match",NA,"formal",NA,1,1,"559.2",783892
"sv020002","sv020002","male",2000,"university","Cir.png","Cir",NA,"圆形","圆形",NA,NA,2,"n","m",0,"match",NA,"formal",NA,0,0,"503.8",785605
"sv020002","sv020002","male",2000,"university","Squ.png","Squ",NA,"正方形","正方形",NA,NA,2,"n","n",0,"match",NA,"formal",NA,1,1,"481.3",787300
"sv020002","sv020002","male",2000,"university","Cir.png","Cir",NA,"三角形","三角形",NA,NA,2,"m","m",0,"mismatch",NA,"formal",NA,1,1,"723.5",841052
"sv020002","sv020002","male",2000,"university","Cir.png","Cir",NA,"圆形","圆形",NA,NA,2,"n","n",0,"match",NA,"formal",NA,1,1,"636.8",842892
"sv020002","sv020002","male",2000,"university","Squ.png","Squ",NA,"圆形","圆形",NA,NA,2,"m","m",0,"mismatch",NA,"formal",NA,1,1,"606.9",844708
"sv020002","sv020002","male",2000,"university","Cir.png","Cir",NA,"圆形","圆形",NA,NA,2,"n","m",0,"match",NA,"formal",NA,0,0,"820.4",846732
"sv020002","sv020002","male",2000,"university","Tri.png","Tri",NA,"三角形","三角形",NA,NA,2,"n","n",0,"match",NA,"formal",NA,1,1,"538.8",848485
"sv020002","sv020002","male",2000,"university","Pen.png","Pen",NA,"五边形","五边形",NA,NA,2,"n","n",0,"match",NA,"formal",NA,1,1,"752.3",850445
"sv020002","sv020002","male",2000,"university","Squ.png","Squ",NA,"圆形","圆形",NA,NA,2,"m","m",0,"mismatch",NA,"formal",NA,1,1,"627.1",852284
"sv020002","sv020002","male",2000,"university","Tri.png","Tri",NA,"三角形","三角形",NA,NA,2,"n","n",0,"match",NA,"formal",NA,1,1,"641.7",854132
"sv020002","sv020002","male",2000,"university","Squ.png","Squ",NA,"五边形","五边形",NA,NA,2,"m","m",0,"mismatch",NA,"formal",NA,1,1,"885.1",856228
"sv020002","sv020002","male",2000,"university","Cir.png","Cir",NA,"圆形","圆形",NA,NA,2,"n","n",0,"match",NA,"formal",NA,1,1,"599.4",858036
"sv020002","sv020002","male",2000,"university","Pen.png","Pen",NA,"三角形","三角形",NA,NA,2,"m","n",0,"mismatch",NA,"formal",NA,0,0,"594.4",859844
"sv020002","sv020002","male",2000,"university","Squ.png","Squ",NA,"正方形","正方形",NA,NA,2,"n","n",0,"match",NA,"formal",NA,1,1,"608.7",861660
"sv020002","sv020002","male",2000,"university","Cir.png","Cir",NA,"圆形","圆形",NA,NA,2,"n","n",0,"match",NA,"formal",NA,1,1,"564.7",863428
"sv020002","sv020002","male",2000,"university","Tri.png","Tri",NA,"五边形","五边形",NA,NA,2,"m","m",0,"mismatch",NA,"formal",NA,1,1,"736",865380
"sv020002","sv020002","male",2000,"university","Tri.png","Tri",NA,"三角形","三角形",NA,NA,2,"n","n",0,"match",NA,"formal",NA,1,1,"559.5",867156
"sv020002","sv020002","male",2000,"university","Tri.png","Tri",NA,"五边形","五边形",NA,NA,2,"m","m",0,"mismatch",NA,"formal",NA,1,1,"596.1",868956
"sv020002","sv020002","male",2000,"university","Cir.png","Cir",NA,"正方形","正方形",NA,NA,2,"m","m",0,"mismatch",NA,"formal",NA,1,1,"815.1",870988
"sv020002","sv020002","male",2000,"university","Squ.png","Squ",NA,"正方形","正方形",NA,NA,2,"n","m",0,"match",NA,"formal",NA,0,0,"511.7",872716
"sv020002","sv020002","male",2000,"university","Pen.png","Pen",NA,"圆形","圆形",NA,NA,2,"m","m",0,"mismatch",NA,"formal",NA,1,1,"721.5",874645
"sv020002","sv020002","male",2000,"university","Pen.png","Pen",NA,"五边形","五边形",NA,NA,2,"n","n",0,"match",NA,"formal",NA,1,1,"798.5",876652
"sv020002","sv020002","male",2000,"university","Tri.png","Tri",NA,"正方形","正方形",NA,NA,2,"m","m",0,"mismatch",NA,"formal",NA,1,1,"673.5",878540
"sv020002","sv020002","male",2000,"university","Tri.png","Tri",NA,"三角形","三角形",NA,NA,2,"n","n",0,"match",NA,"formal",NA,1,1,"589.5",880340
"sv020002","sv020002","male",2000,"university","Squ.png","Squ",NA,"正方形","正方形",NA,NA,2,"n","n",0,"match",NA,"formal",NA,1,1,"608.5",882156
"sv020002","sv020002","male",2000,"university","Cir.png","Cir",NA,"圆形","圆形",NA,NA,2,"n","n",0,"match",NA,"formal",NA,1,1,"528.1",883892
"sv020002","sv020002","male",2000,"university","Squ.png","Squ",NA,"正方形","正方形",NA,NA,2,"n","n",0,"match",NA,"formal",NA,1,1,"614.7",885708
"sv020002","sv020002","male",2000,"university","Cir.png","Cir",NA,"圆形","圆形",NA,NA,2,"n","n",0,"match",NA,"formal",NA,1,1,"646.4",887572
"sv020002","sv020002","male",2000,"university","Cir.png","Cir",NA,"正方形","正方形",NA,NA,2,"m","n",0,"mismatch",NA,"formal",NA,0,0,"583.9",889365
"sv020002","sv020002","male",2000,"university","Cir.png","Cir",NA,"三角形","三角形",NA,NA,2,"m","m",0,"mismatch",NA,"formal",NA,1,1,"711.5",891284
"sv020002","sv020002","male",2000,"university","Tri.png","Tri",NA,"五边形","五边形",NA,NA,2,"m","m",0,"mismatch",NA,"formal",NA,1,1,"763",893252
"sv020002","sv020002","male",2000,"university","Pen.png","Pen",NA,"五边形","五边形",NA,NA,2,"n","n",0,"match",NA,"formal",NA,1,1,"622",895076
"sv020002","sv020002","male",2000,"university","Tri.png","Tri",NA,"三角形","三角形",NA,NA,2,"n","n",0,"match",NA,"formal",NA,1,1,"637.3",896924
"sv020002","sv020002","male",2000,"university","Pen.png","Pen",NA,"五边形","五边形",NA,NA,2,"n","n",0,"match",NA,"formal",NA,1,1,"627",898760
"sv020002","sv020002","male",2000,"university","Cir.png","Cir",NA,"三角形","三角形",NA,NA,2,"m","m",0,"mismatch",NA,"formal",NA,1,1,"553.5",900524
"sv020002","sv020002","male",2000,"university","Pen.png","Pen",NA,"五边形","五边形",NA,NA,2,"n","n",0,"match",NA,"formal",NA,1,1,"848.6",902580
"sv020002","sv020002","male",2000,"university","Tri.png","Tri",NA,"五边形","五边形",NA,NA,2,"m","n",0,"mismatch",NA,"formal",NA,0,0,"30.2",903812
"sv020002","sv020002","male",2000,"university","Tri.png","Tri",NA,"三角形","三角形",NA,NA,2,"n","m",0,"match",NA,"formal",NA,0,0,"321.9",905348
"sv020002","sv020002","male",2000,"university","Tri.png","Tri",NA,"五边形","五边形",NA,NA,2,"m","n",0,"mismatch",NA,"formal",NA,0,0,"419.8",906980
"sv020002","sv020002","male",2000,"university","Squ.png","Squ",NA,"圆形","圆形",NA,NA,2,"m","m",0,"mismatch",NA,"formal",NA,1,1,"581.8",908772
"sv020002","sv020002","male",2000,"university","Tri.png","Tri",NA,"正方形","正方形",NA,NA,2,"m","n",0,"mismatch",NA,"formal",NA,0,0,"638.1",910620
"sv020002","sv020002","male",2000,"university","Squ.png","Squ",NA,"正方形","正方形",NA,NA,2,"n","n",0,"match",NA,"formal",NA,1,1,"525.2",912348
"sv020002","sv020002","male",2000,"university","Squ.png","Squ",NA,"圆形","圆形",NA,NA,2,"m","m",0,"mismatch",NA,"formal",NA,1,1,"586.3",914140
"sv020002","sv020002","male",2000,"university","Pen.png","Pen",NA,"三角形","三角形",NA,NA,2,"m","m",0,"mismatch",NA,"formal",NA,1,1,"899.9",916252
"sv020002","sv020002","male",2000,"university","Tri.png","Tri",NA,"正方形","正方形",NA,NA,2,"m","n",0,"mismatch",NA,"formal",NA,0,0,"346.3",917812
"sv020002","sv020002","male",2000,"university","Tri.png","Tri",NA,"五边形","五边形",NA,NA,2,"m","m",0,"mismatch",NA,"formal",NA,1,1,"616.8",919636
"sv020002","sv020002","male",2000,"university","Squ.png","Squ",NA,"正方形","正方形",NA,NA,2,"n","n",0,"match",NA,"formal",NA,1,1,"693.7",921540
"sv020002","sv020002","male",2000,"university","Cir.png","Cir",NA,"三角形","三角形",NA,NA,2,"m","m",0,"mismatch",NA,"formal",NA,1,1,"630.7",923380
"sv020002","sv020002","male",2000,"university","Cir.png","Cir",NA,"圆形","圆形",NA,NA,2,"n","n",0,"match",NA,"formal",NA,1,1,"612.1",925204
"sv020002","sv020002","male",2000,"university","Pen.png","Pen",NA,"圆形","圆形",NA,NA,2,"m","m",0,"mismatch",NA,"formal",NA,1,1,"748.1",927156
"sv020002","sv020002","male",2000,"university","Tri.png","Tri",NA,"三角形","三角形",NA,NA,2,"n","n",0,"match",NA,"formal",NA,1,1,"620.9",928980
"sv020002","sv020002","male",2000,"university","Squ.png","Squ",NA,"正方形","正方形",NA,NA,2,"n","n",0,"match",NA,"formal",NA,1,1,"670.6",930860
"sv020002","sv020002","male",2000,"university","Cir.png","Cir",NA,"圆形","圆形",NA,NA,2,"n","n",0,"match",NA,"formal",NA,1,1,"717.2",932788
"sv020002","sv020002","male",2000,"university","Squ.png","Squ",NA,"圆形","圆形",NA,NA,2,"m","m",0,"mismatch",NA,"formal",NA,1,1,"630.6",934623
"sv020002","sv020002","male",2000,"university","Tri.png","Tri",NA,"三角形","三角形",NA,NA,2,"n","n",0,"match",NA,"formal",NA,1,1,"600.3",936428
"sv020002","sv020002","male",2000,"university","Squ.png","Squ",NA,"正方形","正方形",NA,NA,2,"n","n",0,"match",NA,"formal",NA,1,1,"697.6",938332
"sv020002","sv020002","male",2000,"university","Tri.png","Tri",NA,"三角形","三角形",NA,NA,2,"n","n",0,"match",NA,"formal",NA,1,1,"578",940124
"sv020002","sv020002","male",2000,"university","Pen.png","Pen",NA,"五边形","五边形",NA,NA,2,"n","m",0,"match",NA,"formal",NA,0,0,"953.5",942284
"sv020002","sv020002","male",2000,"university","Tri.png","Tri",NA,"三角形","三角形",NA,NA,2,"n","n",0,"match",NA,"formal",NA,1,1,"646.2",944140
"sv020002","sv020002","male",2000,"university","Cir.png","Cir",NA,"正方形","正方形",NA,NA,2,"m","m",0,"mismatch",NA,"formal",NA,1,1,"768.6",946117
"sv020002","sv020002","male",2000,"university","Tri.png","Tri",NA,"正方形","正方形",NA,NA,2,"m","n",0,"mismatch",NA,"formal",NA,0,0,"646.7",947972
"sv020002","sv020002","male",2000,"university","Cir.png","Cir",NA,"正方形","正方形",NA,NA,2,"m","m",0,"mismatch",NA,"formal",NA,1,1,"916.9",950092
"sv020002","sv020002","male",2000,"university","Pen.png","Pen",NA,"圆形","圆形",NA,NA,2,"m","m",0,"mismatch",NA,"formal",NA,1,1,"755.2",952060
"sv020002","sv020002","male",2000,"university","Pen.png","Pen",NA,"五边形","五边形",NA,NA,2,"n","m",0,"match",NA,"formal",NA,0,0,"911",954180
"sv020002","sv020002","male",2000,"university","Pen.png","Pen",NA,"圆形","圆形",NA,NA,2,"m","m",0,"mismatch",NA,"formal",NA,1,1,"715",956100
"sv020002","sv020002","male",2000,"university","Tri.png","Tri",NA,"三角形","三角形",NA,NA,2,"n","n",0,"match",NA,"formal",NA,1,1,"730.8",958036
"sv020002","sv020002","male",2000,"university","Squ.png","Squ",NA,"圆形","圆形",NA,NA,2,"m","m",0,"mismatch",NA,"formal",NA,1,1,"784.3",960036
"sv020002","sv020002","male",2000,"university","Tri.png","Tri",NA,"正方形","正方形",NA,NA,2,"m","m",0,"mismatch",NA,"formal",NA,1,1,"766.6",962012
"sv020002","sv020002","male",2000,"university","Squ.png","Squ",NA,"圆形","圆形",NA,NA,2,"m","m",0,"mismatch",NA,"formal",NA,1,1,"592.9",963820
"sv020002","sv020002","male",2000,"university","Squ.png","Squ",NA,"正方形","正方形",NA,NA,2,"n","m",0,"match",NA,"formal",NA,0,0,"635.1",965660
"sv020002","sv020002","male",2000,"university","Tri.png","Tri",NA,"正方形","正方形",NA,NA,2,"m","m",0,"mismatch",NA,"formal",NA,1,1,"771.7",967644
"sv020002","sv020002","male",2000,"university","Cir.png","Cir",NA,"三角形","三角形",NA,NA,2,"m","m",0,"mismatch",NA,"formal",NA,1,1,"660.6",969516
"sv020002","sv020002","male",2000,"university","Tri.png","Tri",NA,"五边形","五边形",NA,NA,2,"m","m",0,"mismatch",NA,"formal",NA,1,1,"932.5",971652
"sv020002","sv020002","male",2000,"university","Cir.png","Cir",NA,"圆形","圆形",NA,NA,2,"n","n",0,"match",NA,"formal",NA,1,1,"742.9",973612
"sv020002","sv020002","male",2000,"university","Squ.png","Squ",NA,"五边形","五边形",NA,NA,2,"m","m",0,"mismatch",NA,"formal",NA,1,1,"762",975580
"sv020002","sv020002","male",2000,"university","Pen.png","Pen",NA,"五边形","五边形",NA,NA,2,"n","n",0,"match",NA,"formal",NA,1,1,"924.7",977708
"sv020002","sv020002","male",2000,"university","Squ.png","Squ",NA,"五边形","五边形",NA,NA,2,"m","m",0,"mismatch",NA,"formal",NA,1,1,"996.7",979916
"sv020002","sv020002","male",2000,"university","Pen.png","Pen",NA,"圆形","圆形",NA,NA,2,"m","m",0,"mismatch",NA,"formal",NA,1,1,"684",981812
"sv020002","sv020002","male",2000,"university","Pen.png","Pen",NA,"三角形","三角形",NA,NA,2,"m","m",0,"mismatch",NA,"formal",NA,1,1,"929.4",983956
"sv020002","sv020002","male",2000,"university","Tri.png","Tri",NA,"五边形","五边形",NA,NA,2,"m","m",0,"mismatch",NA,"formal",NA,1,1,"894.7",986068
"sv020002","sv020002","male",2000,"university","Tri.png","Tri",NA,"正方形","正方形",NA,NA,2,"m","m",0,"mismatch",NA,"formal",NA,1,1,"1123.8",988396
"sv020002","sv020002","male",2000,"university","Squ.png","Squ",NA,"圆形","圆形",NA,NA,2,"m","m",0,"mismatch",NA,"formal",NA,1,1,"815.7",990420
"sv020002","sv020002","male",2000,"university","Tri.png","Tri",NA,"五边形","五边形",NA,NA,2,"m","m",0,"mismatch",NA,"formal",NA,1,1,"761.4",992396
"sv020002","sv020002","male",2000,"university","Cir.png","Cir",NA,"圆形","圆形",NA,NA,2,"n","n",0,"match",NA,"formal",NA,1,1,"1012.1",994612
"sv020002","sv020002","male",2000,"university","Squ.png","Squ",NA,"五边形","五边形",NA,NA,2,"m","m",0,"mismatch",NA,"formal",NA,1,1,"731.9",996548
"sv020002","sv020002","male",2000,"university","Cir.png","Cir",NA,"圆形","圆形",NA,NA,2,"n","n",0,"match",NA,"formal",NA,1,1,"797.4",998559
"sv020002","sv020002","male",2000,"university","Cir.png","Cir",NA,"正方形","正方形",NA,NA,2,"m","m",0,"mismatch",NA,"formal",NA,1,1,"1201.8",1000963
"sv020002","sv020002","male",2000,"university","Squ.png","Squ",NA,"圆形","圆形",NA,NA,2,"m","n",0,"mismatch",NA,"formal",NA,0,0,"1920.2",1004099
"sv020002","sv020002","male",2000,"university","Cir.png","Cir",NA,"圆形","圆形",NA,NA,2,"n","n",0,"match",NA,"formal",NA,1,1,"622.9",1005931
"sv020002","sv020002","male",2000,"university","Pen.png","Pen",NA,"五边形","五边形",NA,NA,2,"n","n",0,"match",NA,"formal",NA,1,1,"1466.2",1008604
"sv020002","sv020002","male",2000,"university","Tri.png","Tri",NA,"正方形","正方形",NA,NA,2,"m","m",0,"mismatch",NA,"formal",NA,1,1,"591.5",1010411
"sv020002","sv020002","male",2000,"university","Pen.png","Pen",NA,"三角形","三角形",NA,NA,2,"m","m",0,"mismatch",NA,"formal",NA,1,1,"839.5",1012452
"sv020002","sv020002","male",2000,"university","Tri.png","Tri",NA,"三角形","三角形",NA,NA,2,"n","n",0,"match",NA,"formal",NA,1,1,"1635.6",1015300
"sv020002","sv020002","male",2000,"university","Pen.png","Pen",NA,"圆形","圆形",NA,NA,2,"m","m",0,"mismatch",NA,"formal",NA,1,1,"978.8",1017492
"sv020002","sv020002","male",2000,"university","Tri.png","Tri",NA,"三角形","三角形",NA,NA,2,"n","n",0,"match",NA,"formal",NA,1,1,"612.2",1019308
"sv020002","sv020002","male",2000,"university","Squ.png","Squ",NA,"正方形","正方形",NA,NA,2,"n","n",0,"match",NA,"formal",NA,1,1,"734.9",1021260
"sv020002","sv020002","male",2000,"university","Tri.png","Tri",NA,"正方形","正方形",NA,NA,2,"m","m",0,"mismatch",NA,"formal",NA,1,1,"1218.1",1023692
"sv020002","sv020002","male",2000,"university","Tri.png","Tri",NA,"五边形","五边形",NA,NA,2,"m","m",0,"mismatch",NA,"formal",NA,1,1,"778.6",1025684
"sv020002","sv020002","male",2000,"university","Squ.png","Squ",NA,"正方形","正方形",NA,NA,2,"n","n",0,"match",NA,"formal",NA,1,1,"822.1",1050452
"sv020002","sv020002","male",2000,"university","Pen.png","Pen",NA,"五边形","五边形",NA,NA,2,"n","m",0,"match",NA,"formal",NA,0,0,"1027.3",1052692
"sv020002","sv020002","male",2000,"university","Cir.png","Cir",NA,"圆形","圆形",NA,NA,2,"n","n",0,"match",NA,"formal",NA,1,1,"517.3",1054419
"sv020002","sv020002","male",2000,"university","Tri.png","Tri",NA,"三角形","三角形",NA,NA,2,"n","n",0,"match",NA,"formal",NA,1,1,"1299.2",1056932
"sv020002","sv020002","male",2000,"university","Cir.png","Cir",NA,"圆形","圆形",NA,NA,2,"n","n",0,"match",NA,"formal",NA,1,1,"924",1059067
"sv020002","sv020002","male",2000,"university","Squ.png","Squ",NA,"正方形","正方形",NA,NA,2,"n","n",0,"match",NA,"formal",NA,1,1,"718.5",1060996
"sv020002","sv020002","male",2000,"university","Tri.png","Tri",NA,"三角形","三角形",NA,NA,2,"n","n",0,"match",NA,"formal",NA,1,1,"656.1",1062860
"sv020002","sv020002","male",2000,"university","Squ.png","Squ",NA,"正方形","正方形",NA,NA,2,"n","n",0,"match",NA,"formal",NA,1,1,"493.6",1064564
"sv020002","sv020002","male",2000,"university","Tri.png","Tri",NA,"三角形","三角形",NA,NA,2,"n","n",0,"match",NA,"formal",NA,1,1,"554.5",1066324
"sv020002","sv020002","male",2000,"university","Cir.png","Cir",NA,"圆形","圆形",NA,NA,2,"n","n",0,"match",NA,"formal",NA,1,1,"480.8",1068020
"sv020002","sv020002","male",2000,"university","Cir.png","Cir",NA,"正方形","正方形",NA,NA,2,"m","m",0,"mismatch",NA,"formal",NA,1,1,"793.8",1070028
"sv020002","sv020002","male",2000,"university","Squ.png","Squ",NA,"五边形","五边形",NA,NA,2,"m","m",0,"mismatch",NA,"formal",NA,1,1,"1043.5",1072276
"sv020002","sv020002","male",2000,"university","Tri.png","Tri",NA,"三角形","三角形",NA,NA,2,"n","n",0,"match",NA,"formal",NA,1,1,"556.6",1074036
"sv020002","sv020002","male",2000,"university","Pen.png","Pen",NA,"五边形","五边形",NA,NA,2,"n","n",0,"match",NA,"formal",NA,1,1,"678.3",1075924
"sv020002","sv020002","male",2000,"university","Cir.png","Cir",NA,"三角形","三角形",NA,NA,2,"m","m",0,"mismatch",NA,"formal",NA,1,1,"691.7",1077820
"sv020002","sv020002","male",2000,"university","Tri.png","Tri",NA,"五边形","五边形",NA,NA,2,"m","m",0,"mismatch",NA,"formal",NA,1,1,"1181.2",1080212
"sv020002","sv020002","male",2000,"university","Cir.png","Cir",NA,"正方形","正方形",NA,NA,2,"m","n",0,"mismatch",NA,"formal",NA,0,0,"700.5",1082124
"sv020002","sv020002","male",2000,"university","Tri.png","Tri",NA,"正方形","正方形",NA,NA,2,"m","m",0,"mismatch",NA,"formal",NA,1,1,"840.5",1084180
"sv020002","sv020002","male",2000,"university","Cir.png","Cir",NA,"圆形","圆形",NA,NA,2,"n","n",0,"match",NA,"formal",NA,1,1,"536.1",1085924
"sv020002","sv020002","male",2000,"university","Cir.png","Cir",NA,"正方形","正方形",NA,NA,2,"m","n",0,"mismatch",NA,"formal",NA,0,0,"925.4",1088060
"sv020002","sv020002","male",2000,"university","Pen.png","Pen",NA,"三角形","三角形",NA,NA,2,"m","m",0,"mismatch",NA,"formal",NA,1,1,"1300.9",1090572
"sv020002","sv020002","male",2000,"university","Pen.png","Pen",NA,"五边形","五边形",NA,NA,2,"n","n",0,"match",NA,"formal",NA,1,1,"679.2",1092460
"sv020002","sv020002","male",2000,"university","Squ.png","Squ",NA,"圆形","圆形",NA,NA,2,"m","m",0,"mismatch",NA,"formal",NA,1,1,"701.2",1094364
"sv020002","sv020002","male",2000,"university","Tri.png","Tri",NA,"正方形","正方形",NA,NA,2,"m","m",0,"mismatch",NA,"formal",NA,1,1,"1043",1096620
"sv020002","sv020002","male",2000,"university","Pen.png","Pen",NA,"五边形","五边形",NA,NA,2,"n","n",0,"match",NA,"formal",NA,1,1,"666.9",1098492
"sv020002","sv020002","male",2000,"university","Pen.png","Pen",NA,"三角形","三角形",NA,NA,2,"m","m",0,"mismatch",NA,"formal",NA,1,1,"1497.9",1101204
"sv020002","sv020002","male",2000,"university","Squ.png","Squ",NA,"圆形","圆形",NA,NA,2,"m","m",0,"mismatch",NA,"formal",NA,1,1,"849.5",1103260
"sv020002","sv020002","male",2000,"university","Pen.png","Pen",NA,"三角形","三角形",NA,NA,2,"m","m",0,"mismatch",NA,"formal",NA,1,1,"1139",1105611
"sv020002","sv020002","male",2000,"university","Cir.png","Cir",NA,"圆形","圆形",NA,NA,2,"n","n",0,"match",NA,"formal",NA,1,1,"666.8",1107484
"sv020002","sv020002","male",2000,"university","Pen.png","Pen",NA,"圆形","圆形",NA,NA,2,"m","m",0,"mismatch",NA,"formal",NA,1,1,"825.3",1109523
"sv020002","sv020002","male",2000,"university","Tri.png","Tri",NA,"三角形","三角形",NA,NA,2,"n","n",0,"match",NA,"formal",NA,1,1,"690",1111420
"sv020002","sv020002","male",2000,"university","Cir.png","Cir",NA,"圆形","圆形",NA,NA,2,"n","n",0,"match",NA,"formal",NA,1,1,"720.1",1113356
"sv020002","sv020002","male",2000,"university","Pen.png","Pen",NA,"三角形","三角形",NA,NA,2,"m","m",0,"mismatch",NA,"formal",NA,1,1,"1142.9",1115700
"sv020002","sv020002","male",2000,"university","Tri.png","Tri",NA,"三角形","三角形",NA,NA,2,"n","n",0,"match",NA,"formal",NA,1,1,"759.2",1117668
"sv020002","sv020002","male",2000,"university","Pen.png","Pen",NA,"五边形","五边形",NA,NA,2,"n","m",0,"match",NA,"formal",NA,0,0,"952.7",1119828
"sv020002","sv020002","male",2000,"university","Pen.png","Pen",NA,"三角形","三角形",NA,NA,2,"m","m",0,"mismatch",NA,"formal",NA,1,1,"1326.3",1122364
"sv020002","sv020002","male",2000,"university","Tri.png","Tri",NA,"正方形","正方形",NA,NA,2,"m","m",0,"mismatch",NA,"formal",NA,1,1,"1020.1",1124596
"sv020002","sv020002","male",2000,"university","Pen.png","Pen",NA,"五边形","五边形",NA,NA,2,"n","m",0,"match",NA,"formal",NA,0,0,"946.5",1126748
"sv020002","sv020002","male",2000,"university","Squ.png","Squ",NA,"正方形","正方形",NA,NA,2,"n","n",0,"match",NA,"formal",NA,1,1,"1463.1",1129428
"sv020002","sv020002","male",2000,"university","Cir.png","Cir",NA,"正方形","正方形",NA,NA,2,"m","m",0,"mismatch",NA,"formal",NA,1,1,"797.2",1131428
"sv020002","sv020002","male",2000,"university","Squ.png","Squ",NA,"正方形","正方形",NA,NA,2,"n","m",0,"match",NA,"formal",NA,0,0,"1992.3",1134623
"sv020002","sv020002","male",2000,"university","Tri.png","Tri",NA,"三角形","三角形",NA,NA,2,"n","n",0,"match",NA,"formal",NA,1,1,"733.9",1136564
"sv020002","sv020002","male",2000,"university","Cir.png","Cir",NA,"圆形","圆形",NA,NA,2,"n","n",0,"match",NA,"formal",NA,1,1,"1110.4",1138884
"sv020002","sv020002","male",2000,"university","Squ.png","Squ",NA,"五边形","五边形",NA,NA,2,"m","m",0,"mismatch",NA,"formal",NA,1,1,"1026.9",1141116
"sv020002","sv020002","male",2000,"university","Pen.png","Pen",NA,"五边形","五边形",NA,NA,2,"n","m",0,"match",NA,"formal",NA,0,0,"1304.7",1143628
"sv020002","sv020002","male",2000,"university","Tri.png","Tri",NA,"三角形","三角形",NA,NA,2,"n","n",0,"match",NA,"formal",NA,1,1,"743.7",1145580
"sv020002","sv020002","male",2000,"university","Pen.png","Pen",NA,"圆形","圆形",NA,NA,2,"m","m",0,"mismatch",NA,"formal",NA,1,1,"727.7",1147516
"sv020002","sv020002","male",2000,"university","Squ.png","Squ",NA,"圆形","圆形",NA,NA,2,"m","m",0,"mismatch",NA,"formal",NA,1,1,"1447.8",1150180
"sv020002","sv020002","male",2000,"university","Cir.png","Cir",NA,"圆形","圆形",NA,NA,2,"n","n",0,"match",NA,"formal",NA,1,1,"832.3",1152228
"sv020002","sv020002","male",2000,"university","Pen.png","Pen",NA,"五边形","五边形",NA,NA,2,"n","m",0,"match",NA,"formal",NA,0,0,"879.5",1154324
"sv020002","sv020002","male",2000,"university","Cir.png","Cir",NA,"正方形","正方形",NA,NA,2,"m","n",0,"mismatch",NA,"formal",NA,0,0,"2077.9",1157604
"sv020002","sv020002","male",2000,"university","Squ.png","Squ",NA,"圆形","圆形",NA,NA,2,"m","m",0,"mismatch",NA,"formal",NA,1,1,"929.8",1159748
"sv020002","sv020002","male",2000,"university","Pen.png","Pen",NA,"五边形","五边形",NA,NA,2,"n","n",0,"match",NA,"formal",NA,1,1,"946.1",1161900
"sv020002","sv020002","male",2000,"university","Tri.png","Tri",NA,"五边形","五边形",NA,NA,2,"m","m",0,"mismatch",NA,"formal",NA,1,1,"923.2",1164028
"sv020002","sv020002","male",2000,"university","Squ.png","Squ",NA,"正方形","正方形",NA,NA,2,"n","n",0,"match",NA,"formal",NA,1,1,"690.1",1165924
"sv020002","sv020002","male",2000,"university","Squ.png","Squ",NA,"圆形","圆形",NA,NA,2,"m","m",0,"mismatch",NA,"formal",NA,1,1,"1011.3",1168148
"sv020002","sv020002","male",2000,"university","Cir.png","Cir",NA,"圆形","圆形",NA,NA,2,"n","n",0,"match",NA,"formal",NA,1,1,"769.9",1170124
"sv020002","sv020002","male",2000,"university","Cir.png","Cir",NA,"正方形","正方形",NA,NA,2,"m","n",0,"mismatch",NA,"formal",NA,0,0,"489.2",1171820
"sv020002","sv020002","male",2000,"university","Squ.png","Squ",NA,"正方形","正方形",NA,NA,2,"n","n",0,"match",NA,"formal",NA,1,1,"641",1173668
"sv020002","sv020002","male",2000,"university","Pen.png","Pen",NA,"五边形","五边形",NA,NA,2,"n","n",0,"match",NA,"formal",NA,1,1,"798.9",1175676
"sv020002","sv020002","male",2000,"university","Squ.png","Squ",NA,"正方形","正方形",NA,NA,2,"n","n",0,"match",NA,"formal",NA,1,1,"635",1177524
"sv020002","sv020002","male",2000,"university","Cir.png","Cir",NA,"圆形","圆形",NA,NA,2,"n","n",0,"match",NA,"formal",NA,1,1,"808.9",1179548
"sv020002","sv020002","male",2000,"university","Pen.png","Pen",NA,"圆形","圆形",NA,NA,2,"m","m",0,"mismatch",NA,"formal",NA,1,1,"630.3",1181388
"sv020002","sv020002","male",2000,"university","Squ.png","Squ",NA,"圆形","圆形",NA,NA,2,"m","n",0,"mismatch",NA,"formal",NA,0,0,"783.4",1183388
"sv020002","sv020002","male",2000,"university","Pen.png","Pen",NA,"五边形","五边形",NA,NA,2,"n","m",0,"match",NA,"formal",NA,0,0,"681.7",1185284
"sv020002","sv020002","male",2000,"university","Cir.png","Cir",NA,"圆形","圆形",NA,NA,2,"n","n",0,"match",NA,"formal",NA,1,1,"658.6",1187155
"sv020002","sv020002","male",2000,"university","Pen.png","Pen",NA,"五边形","五边形",NA,NA,2,"n","null",0,"match",NA,"formal",NA,0,0,"null",1190466
"sv020002","sv020002","male",2000,"university","Tri.png","Tri",NA,"三角形","三角形",NA,NA,2,"n","n",0,"match",NA,"formal",NA,1,1,"639.2",1192316
"sv020002","sv020002","male",2000,"university","Pen.png","Pen",NA,"圆形","圆形",NA,NA,2,"m","m",0,"mismatch",NA,"formal",NA,1,1,"797.9",1194324
"sv020002","sv020002","male",2000,"university","Squ.png","Squ",NA,"正方形","正方形",NA,NA,2,"n","n",0,"match",NA,"formal",NA,1,1,"1471.5",1197012
"sv020002","sv020002","male",2000,"university","Pen.png","Pen",NA,"三角形","三角形",NA,NA,2,"m","m",0,"mismatch",NA,"formal",NA,1,1,"1478.6",1199699
"sv020002","sv020002","male",2000,"university","Squ.png","Squ",NA,"正方形","正方形",NA,NA,2,"n","n",0,"match",NA,"formal",NA,1,1,"799.9",1201709
"sv020002","sv020002","male",2000,"university","Pen.png","Pen",NA,"五边形","五边形",NA,NA,2,"n","null",0,"match",NA,"formal",NA,0,0,"null",1205038
"sv020002","sv020002","male",2000,"university","Squ.png","Squ",NA,"正方形","正方形",NA,NA,2,"n","n",0,"match",NA,"formal",NA,1,1,"825",1207075
"sv020002","sv020002","male",2000,"university","Tri.png","Tri",NA,"三角形","三角形",NA,NA,2,"n","n",0,"match",NA,"formal",NA,1,1,"1396.5",1209676
"sv020002","sv020002","male",2000,"university","Squ.png","Squ",NA,"正方形","正方形",NA,NA,2,"n","n",0,"match",NA,"formal",NA,1,1,"1062.7",1211955
"sv020002","sv020002","male",2000,"university","Pen.png","Pen",NA,"三角形","三角形",NA,NA,2,"m","m",0,"mismatch",NA,"formal",NA,1,1,"959.6",1214124
"sv020002","sv020002","male",2000,"university","Pen.png","Pen",NA,"五边形","五边形",NA,NA,2,"n","m",0,"match",NA,"formal",NA,0,0,"816.6",1216156
"sv020002","sv020002","male",2000,"university","Cir.png","Cir",NA,"圆形","圆形",NA,NA,2,"n","n",0,"match",NA,"formal",NA,1,1,"785",1218156
"sv020002","sv020002","male",2000,"university","Cir.png","Cir",NA,"正方形","正方形",NA,NA,2,"m","m",0,"mismatch",NA,"formal",NA,1,1,"710.9",1220075
"sv020002","sv020002","male",2000,"university","Cir.png","Cir",NA,"圆形","圆形",NA,NA,2,"n","n",0,"match",NA,"formal",NA,1,1,"1156",1222443
"sv020002","sv020002","male",2000,"university","Tri.png","Tri",NA,"五边形","五边形",NA,NA,2,"m","m",0,"mismatch",NA,"formal",NA,1,1,"949.9",1224603
"sv020002","sv020002","male",2000,"university","Tri.png","Tri",NA,"正方形","正方形",NA,NA,2,"m","m",0,"mismatch",NA,"formal",NA,1,1,"650.2",1226468
"sv020002","sv020002","male",2000,"university","Tri.png","Tri",NA,"三角形","三角形",NA,NA,2,"n","m",0,"match",NA,"formal",NA,0,0,"637.2",1228315
"sv020002","sv020002","male",2000,"university","Pen.png","Pen",NA,"三角形","三角形",NA,NA,2,"m","m",0,"mismatch",NA,"formal",NA,1,1,"1381.5",1230907
"sv020002","sv020002","male",2000,"university","Squ.png","Squ",NA,"正方形","正方形",NA,NA,2,"n","n",0,"match",NA,"formal",NA,1,1,"733.7",1232844
"sv020002","sv020002","male",2000,"university","Pen.png","Pen",NA,"圆形","圆形",NA,NA,2,"m","m",0,"mismatch",NA,"formal",NA,1,1,"739.8",1234796
"sv020002","sv020002","male",2000,"university","Tri.png","Tri",NA,"正方形","正方形",NA,NA,2,"m","m",0,"mismatch",NA,"formal",NA,1,1,"705.9",1236716
"sv020002","sv020002","male",2000,"university","Pen.png","Pen",NA,"五边形","五边形",NA,NA,2,"n","m",0,"match",NA,"formal",NA,0,0,"820.3",1238740
"sv020002","sv020002","male",2000,"university","Tri.png","Tri",NA,"三角形","三角形",NA,NA,2,"n","n",0,"match",NA,"formal",NA,1,1,"533",1240484
"sv020002","sv020002","male",2000,"university","Pen.png","Pen",NA,"三角形","三角形",NA,NA,2,"m","m",0,"mismatch",NA,"formal",NA,1,1,"681.5",1242380
"sv020002","sv020002","male",2000,"university","Pen.png","Pen",NA,"五边形","五边形",NA,NA,2,"n","m",0,"match",NA,"formal",NA,0,0,"694.2",1244276
"sv020002","sv020002","male",2000,"university","Tri.png","Tri",NA,"五边形","五边形",NA,NA,2,"m","n",0,"mismatch",NA,"formal",NA,0,0,"1058.9",1246540
"sv020002","sv020002","male",2000,"university","Pen.png","Pen",NA,"圆形","圆形",NA,NA,2,"m","m",0,"mismatch",NA,"formal",NA,1,1,"754.1",1248500
"sv020002","sv020002","male",2000,"university","Squ.png","Squ",NA,"正方形","正方形",NA,NA,2,"n","n",0,"match",NA,"formal",NA,1,1,"622.8",1250332
"sv020002","sv020002","male",2000,"university","Cir.png","Cir",NA,"圆形","圆形",NA,NA,2,"n","n",0,"match",NA,"formal",NA,1,1,"1215.4",1252756
"sv020002","sv020002","male",2000,"university","Tri.png","Tri",NA,"三角形","三角形",NA,NA,2,"n","n",0,"match",NA,"formal",NA,1,1,"732.6",1278620
"sv020002","sv020002","male",2000,"university","Cir.png","Cir",NA,"圆形","圆形",NA,NA,2,"n","n",0,"match",NA,"formal",NA,1,1,"612.7",1280436
"sv020002","sv020002","male",2000,"university","Squ.png","Squ",NA,"正方形","正方形",NA,NA,2,"n","n",0,"match",NA,"formal",NA,1,1,"624.5",1282276
"sv020002","sv020002","male",2000,"university","Tri.png","Tri",NA,"正方形","正方形",NA,NA,2,"m","m",0,"mismatch",NA,"formal",NA,1,1,"1052.2",1284532
"sv020002","sv020002","male",2000,"university","Squ.png","Squ",NA,"五边形","五边形",NA,NA,2,"m","m",0,"mismatch",NA,"formal",NA,1,1,"1012.2",1286756
"sv020002","sv020002","male",2000,"university","Pen.png","Pen",NA,"三角形","三角形",NA,NA,2,"m","m",0,"mismatch",NA,"formal",NA,1,1,"644.1",1288604
"sv020002","sv020002","male",2000,"university","Squ.png","Squ",NA,"正方形","正方形",NA,NA,2,"n","null",0,"match",NA,"formal",NA,0,0,"null",1291911
"sv020002","sv020002","male",2000,"university","Tri.png","Tri",NA,"三角形","三角形",NA,NA,2,"n","n",0,"match",NA,"formal",NA,1,1,"819.3",1293932
"sv020002","sv020002","male",2000,"university","Pen.png","Pen",NA,"圆形","圆形",NA,NA,2,"m","m",0,"mismatch",NA,"formal",NA,1,1,"610",1295748
"sv020002","sv020002","male",2000,"university","Cir.png","Cir",NA,"三角形","三角形",NA,NA,2,"m","m",0,"mismatch",NA,"formal",NA,1,1,"596.1",1297548
"sv020002","sv020002","male",2000,"university","Cir.png","Cir",NA,"圆形","圆形",NA,NA,2,"n","n",0,"match",NA,"formal",NA,1,1,"637.8",1299388
"sv020002","sv020002","male",2000,"university","Squ.png","Squ",NA,"正方形","正方形",NA,NA,2,"n","n",0,"match",NA,"formal",NA,1,1,"1214.7",1301812
"sv020002","sv020002","male",2000,"university","Pen.png","Pen",NA,"三角形","三角形",NA,NA,2,"m","m",0,"mismatch",NA,"formal",NA,1,1,"961",1303979
"sv020002","sv020002","male",2000,"university","Squ.png","Squ",NA,"正方形","正方形",NA,NA,2,"n","n",0,"match",NA,"formal",NA,1,1,"1307.9",1306492
"sv020002","sv020002","male",2000,"university","Squ.png","Squ",NA,"圆形","圆形",NA,NA,2,"m","m",0,"mismatch",NA,"formal",NA,1,1,"775.4",1308483
"sv020002","sv020002","male",2000,"university","Tri.png","Tri",NA,"三角形","三角形",NA,NA,2,"n","n",0,"match",NA,"formal",NA,1,1,"631.5",1310323
"sv020002","sv020002","male",2000,"university","Cir.png","Cir",NA,"三角形","三角形",NA,NA,2,"m","m",0,"mismatch",NA,"formal",NA,1,1,"591.8",1312131
"sv020002","sv020002","male",2000,"university","Squ.png","Squ",NA,"圆形","圆形",NA,NA,2,"m","n",0,"mismatch",NA,"formal",NA,0,0,"638",1313979
"sv020002","sv020002","male",2000,"university","Tri.png","Tri",NA,"三角形","三角形",NA,NA,2,"n","n",0,"match",NA,"formal",NA,1,1,"569.9",1315756
"sv020002","sv020002","male",2000,"university","Cir.png","Cir",NA,"圆形","圆形",NA,NA,2,"n","n",0,"match",NA,"formal",NA,1,1,"580.1",1317547
"sv020002","sv020002","male",2000,"university","Cir.png","Cir",NA,"三角形","三角形",NA,NA,2,"m","m",0,"mismatch",NA,"formal",NA,1,1,"662.9",1319427
"sv020002","sv020002","male",2000,"university","Tri.png","Tri",NA,"三角形","三角形",NA,NA,2,"n","n",0,"match",NA,"formal",NA,1,1,"587.9",1321220
"sv020002","sv020002","male",2000,"university","Cir.png","Cir",NA,"三角形","三角形",NA,NA,2,"m","m",0,"mismatch",NA,"formal",NA,1,1,"724.9",1323155
"sv020002","sv020002","male",2000,"university","Pen.png","Pen",NA,"五边形","五边形",NA,NA,2,"n","n",0,"match",NA,"formal",NA,1,1,"941.8",1325303
"sv020002","sv020002","male",2000,"university","Cir.png","Cir",NA,"三角形","三角形",NA,NA,2,"m","m",0,"mismatch",NA,"formal",NA,1,1,"598.6",1327108
"sv020002","sv020002","male",2000,"university","Squ.png","Squ",NA,"五边形","五边形",NA,NA,2,"m","m",0,"mismatch",NA,"formal",NA,1,1,"753.5",1329076
"sv020002","sv020002","male",2000,"university","Squ.png","Squ",NA,"正方形","正方形",NA,NA,2,"n","n",0,"match",NA,"formal",NA,1,1,"1063.1",1331347
"sv020002","sv020002","male",2000,"university","Cir.png","Cir",NA,"圆形","圆形",NA,NA,2,"n","n",0,"match",NA,"formal",NA,1,1,"673",1333227
"sv020002","sv020002","male",2000,"university","Tri.png","Tri",NA,"三角形","三角形",NA,NA,2,"n","n",0,"match",NA,"formal",NA,1,1,"1072.9",1335516
"sv020002","sv020002","male",2000,"university","Tri.png","Tri",NA,"正方形","正方形",NA,NA,2,"m","m",0,"mismatch",NA,"formal",NA,1,1,"874.9",1337596
"sv020002","sv020002","male",2000,"university","Cir.png","Cir",NA,"圆形","圆形",NA,NA,2,"n","n",0,"match",NA,"formal",NA,1,1,"621.2",1339420
"sv020002","sv020002","male",2000,"university","Pen.png","Pen",NA,"五边形","五边形",NA,NA,2,"n","m",0,"match",NA,"formal",NA,0,0,"645.6",1341276
"sv020002","sv020002","male",2000,"university","Tri.png","Tri",NA,"五边形","五边形",NA,NA,2,"m","n",0,"mismatch",NA,"formal",NA,0,0,"972.7",1343451
"sv020002","sv020002","male",2000,"university","Squ.png","Squ",NA,"正方形","正方形",NA,NA,2,"n","n",0,"match",NA,"formal",NA,1,1,"838.8",1345499
"sv020002","sv020002","male",2000,"university","Squ.png","Squ",NA,"五边形","五边形",NA,NA,2,"m","m",0,"mismatch",NA,"formal",NA,1,1,"797.2",1347507
"sv020002","sv020002","male",2000,"university","Squ.png","Squ",NA,"圆形","圆形",NA,NA,2,"m","m",0,"mismatch",NA,"formal",NA,1,1,"731.6",1349444
"sv020002","sv020002","male",2000,"university","Pen.png","Pen",NA,"五边形","五边形",NA,NA,2,"n","n",0,"match",NA,"formal",NA,1,1,"957.8",1351611
"sv020002","sv020002","male",2000,"university","Cir.png","Cir",NA,"三角形","三角形",NA,NA,2,"m","m",0,"mismatch",NA,"formal",NA,1,1,"688",1353508
"sv020002","sv020002","male",2000,"university","Tri.png","Tri",NA,"五边形","五边形",NA,NA,2,"m","m",0,"mismatch",NA,"formal",NA,1,1,"821.5",1355539
"sv020002","sv020002","male",2000,"university","Tri.png","Tri",NA,"三角形","三角形",NA,NA,2,"n","n",0,"match",NA,"formal",NA,1,1,"707.1",1357459
"sv020002","sv020002","male",2000,"university","Squ.png","Squ",NA,"圆形","圆形",NA,NA,2,"m","n",0,"mismatch",NA,"formal",NA,0,0,"484.7",1359155
"sv020002","sv020002","male",2000,"university","Squ.png","Squ",NA,"正方形","正方形",NA,NA,2,"n","m",0,"match",NA,"formal",NA,0,0,"798.2",1361164
"sv020002","sv020002","male",2000,"university","Cir.png","Cir",NA,"圆形","圆形",NA,NA,2,"n","n",0,"match",NA,"formal",NA,1,1,"715.4",1363091
"sv020002","sv020002","male",2000,"university","Squ.png","Squ",NA,"圆形","圆形",NA,NA,2,"m","n",0,"mismatch",NA,"formal",NA,0,0,"718.7",1365012
"sv020002","sv020002","male",2000,"university","Squ.png","Squ",NA,"正方形","正方形",NA,NA,2,"n","m",0,"match",NA,"formal",NA,0,0,"395.4",1366620
"sv020002","sv020002","male",2000,"university","Tri.png","Tri",NA,"三角形","三角形",NA,NA,2,"n","n",0,"match",NA,"formal",NA,1,1,"20.7",1367843
"sv020002","sv020002","male",2000,"university","Pen.png","Pen",NA,"五边形","五边形",NA,NA,2,"n","m",0,"match",NA,"formal",NA,0,0,"548.2",1369604
"sv020002","sv020002","male",2000,"university","Squ.png","Squ",NA,"正方形","正方形",NA,NA,2,"n","n",0,"match",NA,"formal",NA,1,1,"191",1371011
"sv020002","sv020002","male",2000,"university","Pen.png","Pen",NA,"三角形","三角形",NA,NA,2,"m","m",0,"mismatch",NA,"formal",NA,1,1,"631.2",1372852
"sv020002","sv020002","male",2000,"university","Tri.png","Tri",NA,"五边形","五边形",NA,NA,2,"m","n",0,"mismatch",NA,"formal",NA,0,0,"288.9",1374356
"sv020002","sv020002","male",2000,"university","Pen.png","Pen",NA,"圆形","圆形",NA,NA,2,"m","m",0,"mismatch",NA,"formal",NA,1,1,"206.6",1375772
"sv020002","sv020002","male",2000,"university","Squ.png","Squ",NA,"五边形","五边形",NA,NA,2,"m","m",0,"mismatch",NA,"formal",NA,1,1,"219.2",1377204
"sv020002","sv020002","male",2000,"university","Cir.png","Cir",NA,"圆形","圆形",NA,NA,2,"n","n",0,"match",NA,"formal",NA,1,1,"340.6",1378755
"sv020002","sv020002","male",2000,"university","Squ.png","Squ",NA,"五边形","五边形",NA,NA,2,"m","n",0,"mismatch",NA,"formal",NA,0,0,"567",1380539
"sv020002","sv020002","male",2000,"university","Tri.png","Tri",NA,"三角形","三角形",NA,NA,2,"n","n",0,"match",NA,"formal",NA,1,1,"478.1",1382228
"sv020002","sv020002","male",2000,"university","Cir.png","Cir",NA,"三角形","三角形",NA,NA,2,"m","m",0,"mismatch",NA,"formal",NA,1,1,"785.3",1384228
"sv020002","sv020002","male",2000,"university","Pen.png","Pen",NA,"圆形","圆形",NA,NA,2,"m","m",0,"mismatch",NA,"formal",NA,1,1,"603",1386044
"sv020002","sv020002","male",2000,"university","Tri.png","Tri",NA,"三角形","三角形",NA,NA,2,"n","n",0,"match",NA,"formal",NA,1,1,"548.5",1387804
"sv020002","sv020002","male",2000,"university","Squ.png","Squ",NA,"正方形","正方形",NA,NA,2,"n","m",0,"match",NA,"formal",NA,0,0,"343",1389363
"sv020002","sv020002","male",2000,"university","Cir.png","Cir",NA,"正方形","正方形",NA,NA,2,"m","m",0,"mismatch",NA,"formal",NA,1,1,"824.6",1391395
"sv020002","sv020002","male",2000,"university","Cir.png","Cir",NA,"圆形","圆形",NA,NA,2,"n","n",0,"match",NA,"formal",NA,1,1,"660.7",1393267
"sv020002","sv020002","male",2000,"university","Tri.png","Tri",NA,"三角形","三角形",NA,NA,2,"n","n",0,"match",NA,"formal",NA,1,1,"656.2",1395141
"sv020002","sv020002","male",2000,"university","Cir.png","Cir",NA,"三角形","三角形",NA,NA,2,"m","m",0,"mismatch",NA,"formal",NA,1,1,"734.1",1397084
"sv020002","sv020002","male",2000,"university","Cir.png","Cir",NA,"正方形","正方形",NA,NA,2,"m","m",0,"mismatch",NA,"formal",NA,1,1,"770",1399068
"sv020002","sv020002","male",2000,"university","Pen.png","Pen",NA,"五边形","五边形",NA,NA,2,"n","n",0,"match",NA,"formal",NA,1,1,"829.3",1401108
"sv020002","sv020002","male",2000,"university","Squ.png","Squ",NA,"五边形","五边形",NA,NA,2,"m","m",0,"mismatch",NA,"formal",NA,1,1,"815.8",1403140
"sv020002","sv020002","male",2000,"university","Pen.png","Pen",NA,"五边形","五边形",NA,NA,2,"n","m",0,"match",NA,"formal",NA,0,0,"714.8",1405060
"sv020002","sv020002","male",2000,"university","Squ.png","Squ",NA,"正方形","正方形",NA,NA,2,"n","n",0,"match",NA,"formal",NA,1,1,"619.9",1406892
"sv020002","sv020002","male",2000,"university","Pen.png","Pen",NA,"圆形","圆形",NA,NA,2,"m","m",0,"mismatch",NA,"formal",NA,1,1,"690.4",1408795
"sv020002","sv020002","male",2000,"university","Tri.png","Tri",NA,"正方形","正方形",NA,NA,2,"m","m",0,"mismatch",NA,"formal",NA,1,1,"775.8",1410779
"sv020002","sv020002","male",2000,"university","Cir.png","Cir",NA,"正方形","正方形",NA,NA,2,"m","m",0,"mismatch",NA,"formal",NA,1,1,"731.3",1412716
"sv020002","sv020002","male",2000,"university","Pen.png","Pen",NA,"五边形","五边形",NA,NA,2,"n","m",0,"match",NA,"formal",NA,0,0,"164.8",1414107
"sv020002","sv020002","male",2000,"university","Cir.png","Cir",NA,"三角形","三角形",NA,NA,2,"m","m",0,"mismatch",NA,"formal",NA,1,1,"798.5",1416116
"sv020002","sv020002","male",2000,"university","Pen.png","Pen",NA,"三角形","三角形",NA,NA,2,"m","m",0,"mismatch",NA,"formal",NA,1,1,"442",1417771
"sv020002","sv020002","male",2000,"university","Cir.png","Cir",NA,"正方形","正方形",NA,NA,2,"m","null",0,"mismatch",NA,"formal",NA,0,0,"null",1421080
"sv020002","sv020002","male",2000,"university","Cir.png","Cir",NA,"三角形","三角形",NA,NA,2,"m","m",0,"mismatch",NA,"formal",NA,1,1,"1031.4",1423323
"sv020002","sv020002","male",2000,"university","Squ.png","Squ",NA,"圆形","圆形",NA,NA,2,"m","m",0,"mismatch",NA,"formal",NA,1,1,"751.6",1425276
"sv020002","sv020002","male",2000,"university","Pen.png","Pen",NA,"圆形","圆形",NA,NA,2,"m","m",0,"mismatch",NA,"formal",NA,1,1,"762.5",1427244
"sv020002","sv020002","male",2000,"university","Tri.png","Tri",NA,"三角形","三角形",NA,NA,2,"n","n",0,"match",NA,"formal",NA,1,1,"718.6",1429172
"sv020002","sv020002","male",2000,"university","Cir.png","Cir",NA,"圆形","圆形",NA,NA,2,"n","n",0,"match",NA,"formal",NA,1,1,"719.9",1431109
"sv020002","sv020002","male",2000,"university","Tri.png","Tri",NA,"三角形","三角形",NA,NA,2,"n","n",0,"match",NA,"formal",NA,1,1,"1165.4",1433483
"sv020002","sv020002","male",2000,"university","Cir.png","Cir",NA,"圆形","圆形",NA,NA,2,"n","m",0,"match",NA,"formal",NA,0,0,"1422.3",1436132
"sv020002","sv020002","male",2000,"university","Squ.png","Squ",NA,"正方形","正方形",NA,NA,2,"n","n",0,"match",NA,"formal",NA,1,1,"934.1",1438284
"sv020002","sv020002","male",2000,"university","Cir.png","Cir",NA,"正方形","正方形",NA,NA,2,"m","m",0,"mismatch",NA,"formal",NA,1,1,"1100.6",1440596
"sv020002","sv020002","male",2000,"university","Squ.png","Squ",NA,"正方形","正方形",NA,NA,2,"n","n",0,"match",NA,"formal",NA,1,1,"689.3",1442499
"sv020002","sv020002","male",2000,"university","Squ.png","Squ",NA,"五边形","五边形",NA,NA,2,"m","n",0,"mismatch",NA,"formal",NA,0,0,"975.5",1444683
"sv020002","sv020002","male",2000,"university","Tri.png","Tri",NA,"正方形","正方形",NA,NA,2,"m","m",0,"mismatch",NA,"formal",NA,1,1,"1372.8",1447268
"sv020002","sv020002","male",2000,"university","Cir.png","Cir",NA,"正方形","正方形",NA,NA,2,"m","m",0,"mismatch",NA,"formal",NA,1,1,"944",1449420
"sv020002","sv020002","male",2000,"university","Pen.png","Pen",NA,"三角形","三角形",NA,NA,2,"m","m",0,"mismatch",NA,"formal",NA,1,1,"840.3",1451476
"sv020002","sv020002","male",2000,"university","Cir.png","Cir",NA,"正方形","正方形",NA,NA,2,"m","m",0,"mismatch",NA,"formal",NA,1,1,"1424.3",1454108
"sv020002","sv020002","male",2000,"university","Cir.png","Cir",NA,"圆形","圆形",NA,NA,2,"n","n",0,"match",NA,"formal",NA,1,1,"774.5",1456100
"sv020002","sv020002","male",2000,"university","Pen.png","Pen",NA,"圆形","圆形",NA,NA,2,"m","m",0,"mismatch",NA,"formal",NA,1,1,"1530",1458860
"sv020002","sv020002","male",2000,"university","Pen.png","Pen",NA,"五边形","五边形",NA,NA,2,"n","m",0,"match",NA,"formal",NA,0,0,"783.1",1460852
"sv020002","sv020002","male",2000,"university","Tri.png","Tri",NA,"正方形","正方形",NA,NA,2,"m","m",0,"mismatch",NA,"formal",NA,1,1,"680.2",1462740
"sv020002","sv020002","male",2000,"university","Pen.png","Pen",NA,"三角形","三角形",NA,NA,2,"m","m",0,"mismatch",NA,"formal",NA,1,1,"784.6",1464740
"sv020002","sv020002","male",2000,"university","Cir.png","Cir",NA,"三角形","三角形",NA,NA,2,"m","m",0,"mismatch",NA,"formal",NA,1,1,"849.7",1466804
"sv020002","sv020002","male",2000,"university","Tri.png","Tri",NA,"圆形","圆形",NA,NA,1,"m","m",0,"mismatch",NA,"prac",NA,1,1,"620.7",1570804
"sv020002","sv020002","male",2000,"university","Pen.png","Pen",NA,"五边形","五边形",NA,NA,1,"n","null",0,"match",NA,"prac",NA,0,0,"null",1574347
"sv020002","sv020002","male",2000,"university","Pen.png","Pen",NA,"五边形","五边形",NA,NA,1,"n","null",0,"match",NA,"prac",NA,0,0,"null",1578120
"sv020002","sv020002","male",2000,"university","Cir.png","Cir",NA,"三角形","三角形",NA,NA,1,"m","m",0,"mismatch",NA,"prac",NA,1,1,"847.7",1581388
"sv020002","sv020002","male",2000,"university","Squ.png","Squ",NA,"正方形","正方形",NA,NA,1,"n","n",0,"match",NA,"prac",NA,1,1,"1145.8",1584964
"sv020002","sv020002","male",2000,"university","Tri.png","Tri",NA,"五边形","五边形",NA,NA,1,"m","m",0,"mismatch",NA,"prac",NA,1,1,"727.6",1588124
"sv020002","sv020002","male",2000,"university","Pen.png","Pen",NA,"五边形","五边形",NA,NA,1,"n","null",0,"match",NA,"prac",NA,0,0,"null",1591658
"sv020002","sv020002","male",2000,"university","Pen.png","Pen",NA,"圆形","圆形",NA,NA,1,"m","m",0,"mismatch",NA,"prac",NA,1,1,"1001.2",1595076
"sv020002","sv020002","male",2000,"university","Tri.png","Tri",NA,"三角形","三角形",NA,NA,1,"n","n",0,"match",NA,"prac",NA,1,1,"649.9",1598156
"sv020002","sv020002","male",2000,"university","Tri.png","Tri",NA,"三角形","三角形",NA,NA,1,"n","n",0,"match",NA,"prac",NA,1,1,"1037",1601628
"sv020002","sv020002","male",2000,"university","Pen.png","Pen",NA,"三角形","三角形",NA,NA,1,"m","m",0,"mismatch",NA,"prac",NA,1,1,"609.6",1604660
"sv020002","sv020002","male",2000,"university","Squ.png","Squ",NA,"三角形","三角形",NA,NA,1,"m","m",0,"mismatch",NA,"prac",NA,1,1,"771.8",1607852
"sv020002","sv020002","male",2000,"university","Pen.png","Pen",NA,"五边形","五边形",NA,NA,1,"n","n",0,"match",NA,"prac",NA,1,1,"781",1611060
"sv020002","sv020002","male",2000,"university","Tri.png","Tri",NA,"三角形","三角形",NA,NA,1,"n","n",0,"match",NA,"prac",NA,1,1,"566.6",1614068
"sv020002","sv020002","male",2000,"university","Tri.png","Tri",NA,"三角形","三角形",NA,NA,1,"n","n",0,"match",NA,"prac",NA,1,1,"519.9",1617012
"sv020002","sv020002","male",2000,"university","Pen.png","Pen",NA,"五边形","五边形",NA,NA,1,"n","n",0,"match",NA,"prac",NA,1,1,"669.6",1620108
"sv020002","sv020002","male",2000,"university","Tri.png","Tri",NA,"五边形","五边形",NA,NA,1,"m","m",0,"mismatch",NA,"prac",NA,1,1,"609",1623148
"sv020002","sv020002","male",2000,"university","Squ.png","Squ",NA,"正方形","正方形",NA,NA,1,"n","n",0,"match",NA,"prac",NA,1,1,"621.6",1626204
"sv020002","sv020002","male",2000,"university","Squ.png","Squ",NA,"五边形","五边形",NA,NA,1,"m","m",0,"mismatch",NA,"prac",NA,1,1,"638.8",1629284
"sv020002","sv020002","male",2000,"university","Pen.png","Pen",NA,"正方形","正方形",NA,NA,1,"m","m",0,"mismatch",NA,"prac",NA,1,1,"942.6",1632652
"sv020002","sv020002","male",2000,"university","Pen.png","Pen",NA,"五边形","五边形",NA,NA,1,"n","m",0,"match",NA,"prac",NA,0,0,"668",1635740
"sv020002","sv020002","male",2000,"university","Pen.png","Pen",NA,"五边形","五边形",NA,NA,1,"n","m",0,"match",NA,"prac",NA,0,0,"1089.5",1639244
"sv020002","sv020002","male",2000,"university","Cir.png","Cir",NA,"圆形","圆形",NA,NA,1,"n","n",0,"match",NA,"prac",NA,1,1,"559.1",1642244
"sv020002","sv020002","male",2000,"university","Tri.png","Tri",NA,"五边形","五边形",NA,NA,1,"m","m",0,"mismatch",NA,"prac",NA,1,1,"673.4",1645355
"sv020002","sv020002","male",2000,"university","Cir.png","Cir",NA,"正方形","正方形",NA,NA,1,"m","m",0,"mismatch",NA,"prac",NA,1,1,"817.6",1648612
"sv020002","sv020002","male",2000,"university","Tri.png","Tri",NA,"三角形","三角形",NA,NA,1,"n","n",0,"match",NA,"prac",NA,1,1,"819.3",1651860
"sv020002","sv020002","male",2000,"university","Tri.png","Tri",NA,"正方形","正方形",NA,NA,1,"m","m",0,"mismatch",NA,"prac",NA,1,1,"634.2",1654940
"sv020002","sv020002","male",2000,"university","Pen.png","Pen",NA,"圆形","圆形",NA,NA,1,"m","m",0,"mismatch",NA,"prac",NA,1,1,"899",1658268
"sv020002","sv020002","male",2000,"university","Squ.png","Squ",NA,"正方形","正方形",NA,NA,1,"n","n",0,"match",NA,"prac",NA,1,1,"857.4",1661557
"sv020002","sv020002","male",2000,"university","Squ.png","Squ",NA,"圆形","圆形",NA,NA,1,"m","m",0,"mismatch",NA,"prac",NA,1,1,"1088.7",1665068
"sv020002","sv020002","male",2000,"university","Cir.png","Cir",NA,"圆形","圆形",NA,NA,1,"n","n",0,"match",NA,"prac",NA,1,1,"633.3",1668115
"sv020002","sv020002","male",2000,"university","Squ.png","Squ",NA,"正方形","正方形",NA,NA,1,"n","n",0,"match",NA,"prac",NA,1,1,"948",1671493
"sv020002","sv020002","male",2000,"university","Cir.png","Cir",NA,"圆形","圆形",NA,NA,1,"n","n",0,"match",NA,"prac",NA,1,1,"593.8",1674516
"sv020002","sv020002","male",2000,"university","Squ.png","Squ",NA,"五边形","五边形",NA,NA,1,"m","m",0,"mismatch",NA,"prac",NA,1,1,"747.9",1677700
"sv020002","sv020002","male",2000,"university","Pen.png","Pen",NA,"正方形","正方形",NA,NA,1,"m","null",0,"mismatch",NA,"prac",NA,0,0,"null",1681393
"sv020002","sv020002","male",2000,"university","Pen.png","Pen",NA,"五边形","五边形",NA,NA,1,"n","n",0,"match",NA,"prac",NA,1,1,"605.8",1684420
"sv020002","sv020002","male",2000,"university","Cir.png","Cir",NA,"圆形","圆形",NA,NA,1,"n","n",0,"match",NA,"prac",NA,1,1,"649.2",1687508
"sv020002","sv020002","male",2000,"university","Pen.png","Pen",NA,"圆形","圆形",NA,NA,1,"m","m",0,"mismatch",NA,"prac",NA,1,1,"741.7",1690683
"sv020002","sv020002","male",2000,"university","Cir.png","Cir",NA,"圆形","圆形",NA,NA,1,"n","n",0,"match",NA,"prac",NA,1,1,"565.6",1693686
"sv020002","sv020002","male",2000,"university","Squ.png","Squ",NA,"三角形","三角形",NA,NA,1,"m","m",0,"mismatch",NA,"prac",NA,1,1,"615.7",1696740
"sv020002","sv020002","male",2000,"university","Tri.png","Tri",NA,"五边形","五边形",NA,NA,1,"m","m",0,"mismatch",NA,"prac",NA,1,1,"725.2",1699891
"sv020002","sv020002","male",2000,"university","Cir.png","Cir",NA,"五边形","五边形",NA,NA,1,"m","m",0,"mismatch",NA,"prac",NA,1,1,"791.2",1703107
"sv020002","sv020002","male",2000,"university","Cir.png","Cir",NA,"圆形","圆形",NA,NA,1,"n","n",0,"match",NA,"prac",NA,1,1,"657.9",1706187
"sv020002","sv020002","male",2000,"university","Cir.png","Cir",NA,"圆形","圆形",NA,NA,1,"n","n",0,"match",NA,"prac",NA,1,1,"576.3",1709188
"sv020002","sv020002","male",2000,"university","Pen.png","Pen",NA,"圆形","圆形",NA,NA,1,"m","m",0,"mismatch",NA,"prac",NA,1,1,"1145.5",1712756
"sv020002","sv020002","male",2000,"university","Tri.png","Tri",NA,"三角形","三角形",NA,NA,1,"n","n",0,"match",NA,"prac",NA,1,1,"674.1",1715860
"sv020002","sv020002","male",2000,"university","Tri.png","Tri",NA,"三角形","三角形",NA,NA,1,"n","n",0,"match",NA,"prac",NA,1,1,"919.7",1719204
"sv020002","sv020002","male",2000,"university","Pen.png","Pen",NA,"五边形","五边形",NA,NA,1,"n","m",0,"match",NA,"prac",NA,0,0,"1181.5",1722828
"sv020002","sv020002","male",2000,"university","Pen.png","Pen",NA,"三角形","三角形",NA,NA,1,"m","null",0,"mismatch",NA,"prac",NA,0,0,"null",1726524
"sv020002","sv020002","male",2000,"university","Squ.png","Squ",NA,"正方形","正方形",NA,NA,1,"n","m",0,"match",NA,"prac",NA,0,0,"798.4",1729740
"sv020002","sv020002","male",2000,"university","Cir.png","Cir",NA,"圆形","圆形",NA,NA,1,"n","n",0,"match",NA,"prac",NA,1,1,"513.3",1732684
"sv020002","sv020002","male",2000,"university","Tri.png","Tri",NA,"三角形","三角形",NA,NA,1,"n","n",0,"match",NA,"prac",NA,1,1,"598.3",1735700
"sv020002","sv020002","male",2000,"university","Tri.png","Tri",NA,"三角形","三角形",NA,NA,1,"n","n",0,"match",NA,"prac",NA,1,1,"486.6",1738604
"sv020002","sv020002","male",2000,"university","Cir.png","Cir",NA,"圆形","圆形",NA,NA,1,"n","n",0,"match",NA,"prac",NA,1,1,"542.2",1741571
"sv020002","sv020002","male",2000,"university","Cir.png","Cir",NA,"圆形","圆形",NA,NA,1,"n","m",0,"match",NA,"prac",NA,0,0,"577.4",1744588
"sv020002","sv020002","male",2000,"university","Tri.png","Tri",NA,"正方形","正方形",NA,NA,1,"m","m",0,"mismatch",NA,"prac",NA,1,1,"792.1",1747803
"sv020002","sv020002","male",2000,"university","Pen.png","Pen",NA,"五边形","五边形",NA,NA,1,"n","n",0,"match",NA,"prac",NA,1,1,"675.5",1750899
"sv020002","sv020002","male",2000,"university","Cir.png","Cir",NA,"五边形","五边形",NA,NA,1,"m","m",0,"mismatch",NA,"prac",NA,1,1,"726.4",1754047
"sv020002","sv020002","male",2000,"university","Cir.png","Cir",NA,"五边形","五边形",NA,NA,1,"m","m",0,"mismatch",NA,"prac",NA,1,1,"791.3",1757275
"sv020002","sv020002","male",2000,"university","Cir.png","Cir",NA,"五边形","五边形",NA,NA,1,"m","m",0,"mismatch",NA,"prac",NA,1,1,"820.2",1760523
"sv020002","sv020002","male",2000,"university","Pen.png","Pen",NA,"五边形","五边形",NA,NA,1,"n","n",0,"match",NA,"formal",NA,1,1,"996.6",1768819
"sv020002","sv020002","male",2000,"university","Squ.png","Squ",NA,"正方形","正方形",NA,NA,1,"n","n",0,"match",NA,"formal",NA,1,1,"1007.7",1771036
"sv020002","sv020002","male",2000,"university","Cir.png","Cir",NA,"五边形","五边形",NA,NA,1,"m","m",0,"mismatch",NA,"formal",NA,1,1,"1271.6",1773523
"sv020002","sv020002","male",2000,"university","Tri.png","Tri",NA,"圆形","圆形",NA,NA,1,"m","m",0,"mismatch",NA,"formal",NA,1,1,"781.2",1775515
"sv020002","sv020002","male",2000,"university","Pen.png","Pen",NA,"正方形","正方形",NA,NA,1,"m","n",0,"mismatch",NA,"formal",NA,0,0,"830.9",1777563
"sv020002","sv020002","male",2000,"university","Cir.png","Cir",NA,"圆形","圆形",NA,NA,1,"n","m",0,"match",NA,"formal",NA,0,0,"1012.3",1779779
"sv020002","sv020002","male",2000,"university","Squ.png","Squ",NA,"三角形","三角形",NA,NA,1,"m","m",0,"mismatch",NA,"formal",NA,1,1,"1109.3",1782092
"sv020002","sv020002","male",2000,"university","Squ.png","Squ",NA,"正方形","正方形",NA,NA,1,"n","n",0,"match",NA,"formal",NA,1,1,"759.3",1784059
"sv020002","sv020002","male",2000,"university","Pen.png","Pen",NA,"正方形","正方形",NA,NA,1,"m","m",0,"mismatch",NA,"formal",NA,1,1,"1119.3",1786387
"sv020002","sv020002","male",2000,"university","Cir.png","Cir",NA,"五边形","五边形",NA,NA,1,"m","n",0,"mismatch",NA,"formal",NA,0,0,"1025.6",1788619
"sv020002","sv020002","male",2000,"university","Tri.png","Tri",NA,"三角形","三角形",NA,NA,1,"n","n",0,"match",NA,"formal",NA,1,1,"805.1",1790627
"sv020002","sv020002","male",2000,"university","Cir.png","Cir",NA,"五边形","五边形",NA,NA,1,"m","m",0,"mismatch",NA,"formal",NA,1,1,"1190.8",1793019
"sv020002","sv020002","male",2000,"university","Squ.png","Squ",NA,"三角形","三角形",NA,NA,1,"m","m",0,"mismatch",NA,"formal",NA,1,1,"940.9",1795163
"sv020002","sv020002","male",2000,"university","Pen.png","Pen",NA,"正方形","正方形",NA,NA,1,"m","m",0,"mismatch",NA,"formal",NA,1,1,"917.6",1797283
"sv020002","sv020002","male",2000,"university","Tri.png","Tri",NA,"三角形","三角形",NA,NA,1,"n","n",0,"match",NA,"formal",NA,1,1,"655.5",1799156
"sv020002","sv020002","male",2000,"university","Squ.png","Squ",NA,"三角形","三角形",NA,NA,1,"m","m",0,"mismatch",NA,"formal",NA,1,1,"833.1",1801195
"sv020002","sv020002","male",2000,"university","Tri.png","Tri",NA,"三角形","三角形",NA,NA,1,"n","n",0,"match",NA,"formal",NA,1,1,"736.1",1803148
"sv020002","sv020002","male",2000,"university","Tri.png","Tri",NA,"圆形","圆形",NA,NA,1,"m","m",0,"mismatch",NA,"formal",NA,1,1,"680.5",1805043
"sv020002","sv020002","male",2000,"university","Tri.png","Tri",NA,"三角形","三角形",NA,NA,1,"n","n",0,"match",NA,"formal",NA,1,1,"601.8",1806851
"sv020002","sv020002","male",2000,"university","Cir.png","Cir",NA,"圆形","圆形",NA,NA,1,"n","m",0,"match",NA,"formal",NA,0,0,"619.9",1808676
"sv020002","sv020002","male",2000,"university","Squ.png","Squ",NA,"三角形","三角形",NA,NA,1,"m","m",0,"mismatch",NA,"formal",NA,1,1,"676.6",1810564
"sv020002","sv020002","male",2000,"university","Cir.png","Cir",NA,"圆形","圆形",NA,NA,1,"n","n",0,"match",NA,"formal",NA,1,1,"576.5",1812347
"sv020002","sv020002","male",2000,"university","Squ.png","Squ",NA,"正方形","正方形",NA,NA,1,"n","n",0,"match",NA,"formal",NA,1,1,"650",1814203
"sv020002","sv020002","male",2000,"university","Squ.png","Squ",NA,"三角形","三角形",NA,NA,1,"m","n",0,"mismatch",NA,"formal",NA,0,0,"814.2",1816220
"sv020002","sv020002","male",2000,"university","Cir.png","Cir",NA,"五边形","五边形",NA,NA,1,"m","m",0,"mismatch",NA,"formal",NA,1,1,"722.5",1818155
"sv020002","sv020002","male",2000,"university","Squ.png","Squ",NA,"三角形","三角形",NA,NA,1,"m","m",0,"mismatch",NA,"formal",NA,1,1,"713.2",1820076
"sv020002","sv020002","male",2000,"university","Tri.png","Tri",NA,"三角形","三角形",NA,NA,1,"n","n",0,"match",NA,"formal",NA,1,1,"918.6",1822196
"sv020002","sv020002","male",2000,"university","Cir.png","Cir",NA,"五边形","五边形",NA,NA,1,"m","m",0,"mismatch",NA,"formal",NA,1,1,"650.7",1824060
"sv020002","sv020002","male",2000,"university","Pen.png","Pen",NA,"五边形","五边形",NA,NA,1,"n","m",0,"match",NA,"formal",NA,0,0,"1050.6",1826324
"sv020002","sv020002","male",2000,"university","Pen.png","Pen",NA,"正方形","正方形",NA,NA,1,"m","m",0,"mismatch",NA,"formal",NA,1,1,"1255.6",1828796
"sv020002","sv020002","male",2000,"university","Cir.png","Cir",NA,"五边形","五边形",NA,NA,1,"m","m",0,"mismatch",NA,"formal",NA,1,1,"951.9",1830956
"sv020002","sv020002","male",2000,"university","Pen.png","Pen",NA,"正方形","正方形",NA,NA,1,"m","m",0,"mismatch",NA,"formal",NA,1,1,"1146.2",1833315
"sv020002","sv020002","male",2000,"university","Pen.png","Pen",NA,"五边形","五边形",NA,NA,1,"n","n",0,"match",NA,"formal",NA,1,1,"843.3",1835363
"sv020002","sv020002","male",2000,"university","Tri.png","Tri",NA,"三角形","三角形",NA,NA,1,"n","n",0,"match",NA,"formal",NA,1,1,"581.7",1837156
"sv020002","sv020002","male",2000,"university","Squ.png","Squ",NA,"正方形","正方形",NA,NA,1,"n","n",0,"match",NA,"formal",NA,1,1,"599.4",1838963
"sv020002","sv020002","male",2000,"university","Tri.png","Tri",NA,"三角形","三角形",NA,NA,1,"n","n",0,"match",NA,"formal",NA,1,1,"684.1",1840851
"sv020002","sv020002","male",2000,"university","Cir.png","Cir",NA,"五边形","五边形",NA,NA,1,"m","m",0,"mismatch",NA,"formal",NA,1,1,"623.4",1842684
"sv020002","sv020002","male",2000,"university","Squ.png","Squ",NA,"三角形","三角形",NA,NA,1,"m","m",0,"mismatch",NA,"formal",NA,1,1,"743.2",1844635
"sv020002","sv020002","male",2000,"university","Cir.png","Cir",NA,"五边形","五边形",NA,NA,1,"m","m",0,"mismatch",NA,"formal",NA,1,1,"850.9",1846692
"sv020002","sv020002","male",2000,"university","Squ.png","Squ",NA,"正方形","正方形",NA,NA,1,"n","n",0,"match",NA,"formal",NA,1,1,"587.7",1848492
"sv020002","sv020002","male",2000,"university","Cir.png","Cir",NA,"圆形","圆形",NA,NA,1,"n","n",0,"match",NA,"formal",NA,1,1,"724.3",1850427
"sv020002","sv020002","male",2000,"university","Squ.png","Squ",NA,"正方形","正方形",NA,NA,1,"n","n",0,"match",NA,"formal",NA,1,1,"630.7",1852268
"sv020002","sv020002","male",2000,"university","Tri.png","Tri",NA,"圆形","圆形",NA,NA,1,"m","m",0,"mismatch",NA,"formal",NA,1,1,"807.2",1854291
"sv020002","sv020002","male",2000,"university","Cir.png","Cir",NA,"圆形","圆形",NA,NA,1,"n","n",0,"match",NA,"formal",NA,1,1,"740.6",1856243
"sv020002","sv020002","male",2000,"university","Pen.png","Pen",NA,"正方形","正方形",NA,NA,1,"m","m",0,"mismatch",NA,"formal",NA,1,1,"1039.5",1858492
"sv020002","sv020002","male",2000,"university","Tri.png","Tri",NA,"三角形","三角形",NA,NA,1,"n","n",0,"match",NA,"formal",NA,1,1,"656.6",1860356
"sv020002","sv020002","male",2000,"university","Cir.png","Cir",NA,"圆形","圆形",NA,NA,1,"n","n",0,"match",NA,"formal",NA,1,1,"524.6",1862083
"sv020002","sv020002","male",2000,"university","Squ.png","Squ",NA,"正方形","正方形",NA,NA,1,"n","n",0,"match",NA,"formal",NA,1,1,"543.5",1863835
"sv020002","sv020002","male",2000,"university","Pen.png","Pen",NA,"五边形","五边形",NA,NA,1,"n","n",0,"match",NA,"formal",NA,1,1,"683.3",1865724
"sv020002","sv020002","male",2000,"university","Squ.png","Squ",NA,"正方形","正方形",NA,NA,1,"n","n",0,"match",NA,"formal",NA,1,1,"466.5",1867404
"sv020002","sv020002","male",2000,"university","Tri.png","Tri",NA,"圆形","圆形",NA,NA,1,"m","m",0,"mismatch",NA,"formal",NA,1,1,"831.4",1869452
"sv020002","sv020002","male",2000,"university","Pen.png","Pen",NA,"正方形","正方形",NA,NA,1,"m","n",0,"mismatch",NA,"formal",NA,0,0,"779.1",1871436
"sv020002","sv020002","male",2000,"university","Squ.png","Squ",NA,"三角形","三角形",NA,NA,1,"m","m",0,"mismatch",NA,"formal",NA,1,1,"600.3",1873252
"sv020002","sv020002","male",2000,"university","Cir.png","Cir",NA,"五边形","五边形",NA,NA,1,"m","m",0,"mismatch",NA,"formal",NA,1,1,"666.9",1875132
"sv020002","sv020002","male",2000,"university","Squ.png","Squ",NA,"三角形","三角形",NA,NA,1,"m","m",0,"mismatch",NA,"formal",NA,1,1,"617.7",1876963
"sv020002","sv020002","male",2000,"university","Tri.png","Tri",NA,"圆形","圆形",NA,NA,1,"m","m",0,"mismatch",NA,"formal",NA,1,1,"615",1878780
"sv020002","sv020002","male",2000,"university","Squ.png","Squ",NA,"正方形","正方形",NA,NA,1,"n","m",0,"match",NA,"formal",NA,0,0,"26.3",1880020
"sv020002","sv020002","male",2000,"university","Tri.png","Tri",NA,"圆形","圆形",NA,NA,1,"m","m",0,"mismatch",NA,"formal",NA,1,1,"746",1881972
"sv020002","sv020002","male",2000,"university","Cir.png","Cir",NA,"五边形","五边形",NA,NA,1,"m","n",0,"mismatch",NA,"formal",NA,0,0,"76.9",1883252
"sv020002","sv020002","male",2000,"university","Tri.png","Tri",NA,"圆形","圆形",NA,NA,1,"m","n",0,"mismatch",NA,"formal",NA,0,0,"2",1884468
"sv020002","sv020002","male",2000,"university","Pen.png","Pen",NA,"五边形","五边形",NA,NA,1,"n","m",0,"match",NA,"formal",NA,0,0,"299.8",1885972
"sv020002","sv020002","male",2000,"university","Pen.png","Pen",NA,"正方形","正方形",NA,NA,1,"m","n",0,"mismatch",NA,"formal",NA,0,0,"128.4",1887316
"sv020002","sv020002","male",2000,"university","Tri.png","Tri",NA,"三角形","三角形",NA,NA,1,"n","n",0,"match",NA,"formal",NA,1,1,"579.2",1889100
"sv020002","sv020002","male",2000,"university","Pen.png","Pen",NA,"正方形","正方形",NA,NA,1,"m","m",0,"mismatch",NA,"formal",NA,1,1,"678.3",1890996
"sv020002","sv020002","male",2000,"university","Cir.png","Cir",NA,"圆形","圆形",NA,NA,1,"n","n",0,"match",NA,"formal",NA,1,1,"674.8",1892876
"sv020002","sv020002","male",2000,"university","Cir.png","Cir",NA,"五边形","五边形",NA,NA,1,"m","m",0,"mismatch",NA,"formal",NA,1,1,"628.4",1894716
"sv020002","sv020002","male",2000,"university","Pen.png","Pen",NA,"五边形","五边形",NA,NA,1,"n","n",0,"match",NA,"formal",NA,1,1,"722.6",1896652
"sv020002","sv020002","male",2000,"university","Tri.png","Tri",NA,"三角形","三角形",NA,NA,1,"n","n",0,"match",NA,"formal",NA,1,1,"480.7",1898340
"sv020002","sv020002","male",2000,"university","Tri.png","Tri",NA,"圆形","圆形",NA,NA,1,"m","m",0,"mismatch",NA,"formal",NA,1,1,"745",1900292
"sv020002","sv020002","male",2000,"university","Pen.png","Pen",NA,"正方形","正方形",NA,NA,1,"m","n",0,"mismatch",NA,"formal",NA,0,0,"675.6",1902183
"sv020002","sv020002","male",2000,"university","Squ.png","Squ",NA,"三角形","三角形",NA,NA,1,"m","m",0,"mismatch",NA,"formal",NA,1,1,"1054.8",1904444
"sv020002","sv020002","male",2000,"university","Tri.png","Tri",NA,"圆形","圆形",NA,NA,1,"m","m",0,"mismatch",NA,"formal",NA,1,1,"567.9",1906228
"sv020002","sv020002","male",2000,"university","Cir.png","Cir",NA,"圆形","圆形",NA,NA,1,"n","m",0,"match",NA,"formal",NA,0,0,"120.9",1907556
"sv020002","sv020002","male",2000,"university","Pen.png","Pen",NA,"正方形","正方形",NA,NA,1,"m","m",0,"mismatch",NA,"formal",NA,1,1,"811.9",1909580
"sv020002","sv020002","male",2000,"university","Tri.png","Tri",NA,"三角形","三角形",NA,NA,1,"n","n",0,"match",NA,"formal",NA,1,1,"457.3",1911244
"sv020002","sv020002","male",2000,"university","Pen.png","Pen",NA,"五边形","五边形",NA,NA,1,"n","m",0,"match",NA,"formal",NA,0,0,"19.9",1912468
"sv020002","sv020002","male",2000,"university","Squ.png","Squ",NA,"正方形","正方形",NA,NA,1,"n","n",0,"match",NA,"formal",NA,1,1,"611.6",1914292
"sv020002","sv020002","male",2000,"university","Pen.png","Pen",NA,"五边形","五边形",NA,NA,1,"n","m",0,"match",NA,"formal",NA,0,0,"584",1916084
"sv020002","sv020002","male",2000,"university","Pen.png","Pen",NA,"正方形","正方形",NA,NA,1,"m","m",0,"mismatch",NA,"formal",NA,1,1,"622.8",1917916
"sv020002","sv020002","male",2000,"university","Squ.png","Squ",NA,"三角形","三角形",NA,NA,1,"m","m",0,"mismatch",NA,"formal",NA,1,1,"870.1",1919996
"sv020002","sv020002","male",2000,"university","Tri.png","Tri",NA,"圆形","圆形",NA,NA,1,"m","m",0,"mismatch",NA,"formal",NA,1,1,"633.1",1921844
"sv020002","sv020002","male",2000,"university","Tri.png","Tri",NA,"三角形","三角形",NA,NA,1,"n","n",0,"match",NA,"formal",NA,1,1,"44.6",1923100
"sv020002","sv020002","male",2000,"university","Tri.png","Tri",NA,"圆形","圆形",NA,NA,1,"m","m",0,"mismatch",NA,"formal",NA,1,1,"958.3",1925268
"sv020002","sv020002","male",2000,"university","Squ.png","Squ",NA,"正方形","正方形",NA,NA,1,"n","n",0,"match",NA,"formal",NA,1,1,"875",1927351
"sv020002","sv020002","male",2000,"university","Pen.png","Pen",NA,"五边形","五边形",NA,NA,1,"n","m",0,"match",NA,"formal",NA,0,0,"1186.1",1929740
"sv020002","sv020002","male",2000,"university","Squ.png","Squ",NA,"三角形","三角形",NA,NA,1,"m","m",0,"mismatch",NA,"formal",NA,1,1,"726.5",1931675
"sv020002","sv020002","male",2000,"university","Squ.png","Squ",NA,"正方形","正方形",NA,NA,1,"n","m",0,"match",NA,"formal",NA,0,0,"170.3",1933051
"sv020002","sv020002","male",2000,"university","Tri.png","Tri",NA,"三角形","三角形",NA,NA,1,"n","m",0,"match",NA,"formal",NA,0,0,"124.8",1934387
"sv020002","sv020002","male",2000,"university","Pen.png","Pen",NA,"五边形","五边形",NA,NA,1,"n","n",0,"match",NA,"formal",NA,1,1,"999.6",1936595
"sv020002","sv020002","male",2000,"university","Squ.png","Squ",NA,"正方形","正方形",NA,NA,1,"n","n",0,"match",NA,"formal",NA,1,1,"573.9",1938371
"sv020002","sv020002","male",2000,"university","Tri.png","Tri",NA,"三角形","三角形",NA,NA,1,"n","n",0,"match",NA,"formal",NA,1,1,"594.6",1940171
"sv020002","sv020002","male",2000,"university","Pen.png","Pen",NA,"五边形","五边形",NA,NA,1,"n","n",0,"match",NA,"formal",NA,1,1,"630.9",1942019
"sv020002","sv020002","male",2000,"university","Cir.png","Cir",NA,"五边形","五边形",NA,NA,1,"m","m",0,"mismatch",NA,"formal",NA,1,1,"789",1944011
"sv020002","sv020002","male",2000,"university","Tri.png","Tri",NA,"圆形","圆形",NA,NA,1,"m","m",0,"mismatch",NA,"formal",NA,1,1,"678.5",1945899
"sv020002","sv020002","male",2000,"university","Squ.png","Squ",NA,"正方形","正方形",NA,NA,1,"n","m",0,"match",NA,"formal",NA,0,0,"1050.4",1948163
"sv020002","sv020002","male",2000,"university","Pen.png","Pen",NA,"正方形","正方形",NA,NA,1,"m","m",0,"mismatch",NA,"formal",NA,1,1,"1016.5",1950388
"sv020002","sv020002","male",2000,"university","Squ.png","Squ",NA,"三角形","三角形",NA,NA,1,"m","m",0,"mismatch",NA,"formal",NA,1,1,"908.7",2005932
"sv020002","sv020002","male",2000,"university","Cir.png","Cir",NA,"五边形","五边形",NA,NA,1,"m","m",0,"mismatch",NA,"formal",NA,1,1,"655.4",2007804
"sv020002","sv020002","male",2000,"university","Pen.png","Pen",NA,"五边形","五边形",NA,NA,1,"n","n",0,"match",NA,"formal",NA,1,1,"687",2009700
"sv020002","sv020002","male",2000,"university","Tri.png","Tri",NA,"三角形","三角形",NA,NA,1,"n","n",0,"match",NA,"formal",NA,1,1,"602.4",2011516
"sv020002","sv020002","male",2000,"university","Pen.png","Pen",NA,"正方形","正方形",NA,NA,1,"m","n",0,"mismatch",NA,"formal",NA,0,0,"715.7",2013444
"sv020002","sv020002","male",2000,"university","Cir.png","Cir",NA,"五边形","五边形",NA,NA,1,"m","m",0,"mismatch",NA,"formal",NA,1,1,"1186.9",2015835
"sv020002","sv020002","male",2000,"university","Pen.png","Pen",NA,"五边形","五边形",NA,NA,1,"n","n",0,"match",NA,"formal",NA,1,1,"489.8",2017531
"sv020002","sv020002","male",2000,"university","Pen.png","Pen",NA,"正方形","正方形",NA,NA,1,"m","n",0,"mismatch",NA,"formal",NA,0,0,"574.4",2019315
"sv020002","sv020002","male",2000,"university","Tri.png","Tri",NA,"圆形","圆形",NA,NA,1,"m","m",0,"mismatch",NA,"formal",NA,1,1,"625.3",2021147
"sv020002","sv020002","male",2000,"university","Squ.png","Squ",NA,"正方形","正方形",NA,NA,1,"n","n",0,"match",NA,"formal",NA,1,1,"850.8",2023204
"sv020002","sv020002","male",2000,"university","Pen.png","Pen",NA,"正方形","正方形",NA,NA,1,"m","m",0,"mismatch",NA,"formal",NA,1,1,"803.4",2025220
"sv020002","sv020002","male",2000,"university","Squ.png","Squ",NA,"正方形","正方形",NA,NA,1,"n","n",0,"match",NA,"formal",NA,1,1,"756.2",2027180
"sv020002","sv020002","male",2000,"university","Cir.png","Cir",NA,"五边形","五边形",NA,NA,1,"m","m",0,"mismatch",NA,"formal",NA,1,1,"687.5",2029084
"sv020002","sv020002","male",2000,"university","Pen.png","Pen",NA,"五边形","五边形",NA,NA,1,"n","m",0,"match",NA,"formal",NA,0,0,"772.3",2031068
"sv020002","sv020002","male",2000,"university","Cir.png","Cir",NA,"圆形","圆形",NA,NA,1,"n","n",0,"match",NA,"formal",NA,1,1,"510.8",2032787
"sv020002","sv020002","male",2000,"university","Squ.png","Squ",NA,"三角形","三角形",NA,NA,1,"m","m",0,"mismatch",NA,"formal",NA,1,1,"595.6",2034588
"sv020002","sv020002","male",2000,"university","Pen.png","Pen",NA,"五边形","五边形",NA,NA,1,"n","n",0,"match",NA,"formal",NA,1,1,"34.8",2035828
"sv020002","sv020002","male",2000,"university","Tri.png","Tri",NA,"三角形","三角形",NA,NA,1,"n","n",0,"match",NA,"formal",NA,1,1,"479.4",2037524
"sv020002","sv020002","male",2000,"university","Tri.png","Tri",NA,"圆形","圆形",NA,NA,1,"m","m",0,"mismatch",NA,"formal",NA,1,1,"498.3",2039236
"sv020002","sv020002","male",2000,"university","Cir.png","Cir",NA,"圆形","圆形",NA,NA,1,"n","n",0,"match",NA,"formal",NA,1,1,"46.4",2040483
"sv020002","sv020002","male",2000,"university","Tri.png","Tri",NA,"圆形","圆形",NA,NA,1,"m","n",0,"mismatch",NA,"formal",NA,0,0,"181.1",2041868
"sv020002","sv020002","male",2000,"university","Tri.png","Tri",NA,"三角形","三角形",NA,NA,1,"n","n",0,"match",NA,"formal",NA,1,1,"120.4",2043204
"sv020002","sv020002","male",2000,"university","Pen.png","Pen",NA,"正方形","正方形",NA,NA,1,"m","m",0,"mismatch",NA,"formal",NA,1,1,"19.8",2044436
"sv020002","sv020002","male",2000,"university","Cir.png","Cir",NA,"圆形","圆形",NA,NA,1,"n","m",0,"match",NA,"formal",NA,0,0,"123.7",2045772
"sv020002","sv020002","male",2000,"university","Pen.png","Pen",NA,"正方形","正方形",NA,NA,1,"m","n",0,"mismatch",NA,"formal",NA,0,0,"173.7",2047156
"sv020002","sv020002","male",2000,"university","Squ.png","Squ",NA,"三角形","三角形",NA,NA,1,"m","m",0,"mismatch",NA,"formal",NA,1,1,"923.6",2049292
"sv020002","sv020002","male",2000,"university","Cir.png","Cir",NA,"圆形","圆形",NA,NA,1,"n","m",0,"match",NA,"formal",NA,0,0,"629",2051124
"sv020002","sv020002","male",2000,"university","Squ.png","Squ",NA,"三角形","三角形",NA,NA,1,"m","m",0,"mismatch",NA,"formal",NA,1,1,"948.7",2053276
"sv020002","sv020002","male",2000,"university","Tri.png","Tri",NA,"圆形","圆形",NA,NA,1,"m","m",0,"mismatch",NA,"formal",NA,1,1,"1080.3",2055571
"sv020002","sv020002","male",2000,"university","Pen.png","Pen",NA,"五边形","五边形",NA,NA,1,"n","m",0,"match",NA,"formal",NA,0,0,"885.8",2057660
"sv020002","sv020002","male",2000,"university","Tri.png","Tri",NA,"圆形","圆形",NA,NA,1,"m","m",0,"mismatch",NA,"formal",NA,1,1,"1212.4",2060084
"sv020002","sv020002","male",2000,"university","Squ.png","Squ",NA,"正方形","正方形",NA,NA,1,"n","n",0,"match",NA,"formal",NA,1,1,"903.6",2062195
"sv020002","sv020002","male",2000,"university","Pen.png","Pen",NA,"五边形","五边形",NA,NA,1,"n","m",0,"match",NA,"formal",NA,0,0,"1135.6",2064540
"sv020002","sv020002","male",2000,"university","Cir.png","Cir",NA,"圆形","圆形",NA,NA,1,"n","n",0,"match",NA,"formal",NA,1,1,"767",2066516
"sv020002","sv020002","male",2000,"university","Tri.png","Tri",NA,"三角形","三角形",NA,NA,1,"n","n",0,"match",NA,"formal",NA,1,1,"771",2068500
"sv020002","sv020002","male",2000,"university","Pen.png","Pen",NA,"五边形","五边形",NA,NA,1,"n","n",0,"match",NA,"formal",NA,1,1,"773.1",2070483
"sv020002","sv020002","male",2000,"university","Squ.png","Squ",NA,"三角形","三角形",NA,NA,1,"m","m",0,"mismatch",NA,"formal",NA,1,1,"840.9",2072539
"sv020002","sv020002","male",2000,"university","Pen.png","Pen",NA,"正方形","正方形",NA,NA,1,"m","m",0,"mismatch",NA,"formal",NA,1,1,"1173.3",2074915
"sv020002","sv020002","male",2000,"university","Cir.png","Cir",NA,"五边形","五边形",NA,NA,1,"m","m",0,"mismatch",NA,"formal",NA,1,1,"753.7",2076876
"sv020002","sv020002","male",2000,"university","Squ.png","Squ",NA,"正方形","正方形",NA,NA,1,"n","n",0,"match",NA,"formal",NA,1,1,"708.8",2078795
"sv020002","sv020002","male",2000,"university","Cir.png","Cir",NA,"圆形","圆形",NA,NA,1,"n","n",0,"match",NA,"formal",NA,1,1,"624.2",2080627
"sv020002","sv020002","male",2000,"university","Tri.png","Tri",NA,"三角形","三角形",NA,NA,1,"n","n",0,"match",NA,"formal",NA,1,1,"907.5",2082747
"sv020002","sv020002","male",2000,"university","Pen.png","Pen",NA,"五边形","五边形",NA,NA,1,"n","m",0,"match",NA,"formal",NA,0,0,"1189.3",2085139
"sv020002","sv020002","male",2000,"university","Cir.png","Cir",NA,"圆形","圆形",NA,NA,1,"n","n",0,"match",NA,"formal",NA,1,1,"776",2087123
"sv020002","sv020002","male",2000,"university","Squ.png","Squ",NA,"正方形","正方形",NA,NA,1,"n","n",0,"match",NA,"formal",NA,1,1,"770.2",2089099
"sv020002","sv020002","male",2000,"university","Pen.png","Pen",NA,"五边形","五边形",NA,NA,1,"n","n",0,"match",NA,"formal",NA,1,1,"750.3",2091060
"sv020002","sv020002","male",2000,"university","Pen.png","Pen",NA,"正方形","正方形",NA,NA,1,"m","m",0,"mismatch",NA,"formal",NA,1,1,"81.9",2092355
"sv020002","sv020002","male",2000,"university","Tri.png","Tri",NA,"圆形","圆形",NA,NA,1,"m","m",0,"mismatch",NA,"formal",NA,1,1,"128.5",2093692
"sv020002","sv020002","male",2000,"university","Tri.png","Tri",NA,"三角形","三角形",NA,NA,1,"n","n",0,"match",NA,"formal",NA,1,1,"22.3",2094931
"sv020002","sv020002","male",2000,"university","Cir.png","Cir",NA,"五边形","五边形",NA,NA,1,"m","n",0,"mismatch",NA,"formal",NA,0,0,"56.9",2096195
"sv020002","sv020002","male",2000,"university","Tri.png","Tri",NA,"三角形","三角形",NA,NA,1,"n","m",0,"match",NA,"formal",NA,0,0,"6",2097411
"sv020002","sv020002","male",2000,"university","Tri.png","Tri",NA,"圆形","圆形",NA,NA,1,"m","n",0,"mismatch",NA,"formal",NA,0,0,"72.3",2098691
"sv020002","sv020002","male",2000,"university","Tri.png","Tri",NA,"三角形","三角形",NA,NA,1,"n","n",0,"match",NA,"formal",NA,1,1,"495.9",2100403
"sv020002","sv020002","male",2000,"university","Pen.png","Pen",NA,"正方形","正方形",NA,NA,1,"m","n",0,"mismatch",NA,"formal",NA,0,0,"52.6",2101675
"sv020002","sv020002","male",2000,"university","Tri.png","Tri",NA,"三角形","三角形",NA,NA,1,"n","n",0,"match",NA,"formal",NA,1,1,"633.2",2103515
"sv020002","sv020002","male",2000,"university","Cir.png","Cir",NA,"五边形","五边形",NA,NA,1,"m","m",0,"mismatch",NA,"formal",NA,1,1,"1076.1",2105795
"sv020002","sv020002","male",2000,"university","Squ.png","Squ",NA,"三角形","三角形",NA,NA,1,"m","m",0,"mismatch",NA,"formal",NA,1,1,"639.3",2107652
"sv020002","sv020002","male",2000,"university","Pen.png","Pen",NA,"正方形","正方形",NA,NA,1,"m","m",0,"mismatch",NA,"formal",NA,1,1,"581.1",2109443
"sv020002","sv020002","male",2000,"university","Cir.png","Cir",NA,"圆形","圆形",NA,NA,1,"n","m",0,"match",NA,"formal",NA,0,0,"1937.9",2112596
"sv020002","sv020002","male",2000,"university","Pen.png","Pen",NA,"五边形","五边形",NA,NA,1,"n","n",0,"match",NA,"formal",NA,1,1,"1166.9",2114971
"sv020002","sv020002","male",2000,"university","Squ.png","Squ",NA,"三角形","三角形",NA,NA,1,"m","m",0,"mismatch",NA,"formal",NA,1,1,"783.1",2116959
"sv020002","sv020002","male",2000,"university","Tri.png","Tri",NA,"三角形","三角形",NA,NA,1,"n","n",0,"match",NA,"formal",NA,1,1,"1731.7",2119899
"sv020002","sv020002","male",2000,"university","Cir.png","Cir",NA,"五边形","五边形",NA,NA,1,"m","m",0,"mismatch",NA,"formal",NA,1,1,"624.6",2121740
"sv020002","sv020002","male",2000,"university","Pen.png","Pen",NA,"正方形","正方形",NA,NA,1,"m","m",0,"mismatch",NA,"formal",NA,1,1,"695.8",2123644
"sv020002","sv020002","male",2000,"university","Squ.png","Squ",NA,"正方形","正方形",NA,NA,1,"n","n",0,"match",NA,"formal",NA,1,1,"683.4",2125532
"sv020002","sv020002","male",2000,"university","Pen.png","Pen",NA,"正方形","正方形",NA,NA,1,"m","m",0,"mismatch",NA,"formal",NA,1,1,"856",2127604
"sv020002","sv020002","male",2000,"university","Cir.png","Cir",NA,"五边形","五边形",NA,NA,1,"m","m",0,"mismatch",NA,"formal",NA,1,1,"834.6",2129652
"sv020002","sv020002","male",2000,"university","Pen.png","Pen",NA,"五边形","五边形",NA,NA,1,"n","n",0,"match",NA,"formal",NA,1,1,"870.6",2131732
"sv020002","sv020002","male",2000,"university","Tri.png","Tri",NA,"三角形","三角形",NA,NA,1,"n","m",0,"match",NA,"formal",NA,0,0,"536.8",2133476
"sv020002","sv020002","male",2000,"university","Cir.png","Cir",NA,"圆形","圆形",NA,NA,1,"n","n",0,"match",NA,"formal",NA,1,1,"539.8",2135228
"sv020002","sv020002","male",2000,"university","Tri.png","Tri",NA,"圆形","圆形",NA,NA,1,"m","m",0,"mismatch",NA,"formal",NA,1,1,"723.8",2137164
"sv020002","sv020002","male",2000,"university","Squ.png","Squ",NA,"三角形","三角形",NA,NA,1,"m","m",0,"mismatch",NA,"formal",NA,1,1,"783.6",2139156
"sv020002","sv020002","male",2000,"university","Pen.png","Pen",NA,"正方形","正方形",NA,NA,1,"m","m",0,"mismatch",NA,"formal",NA,1,1,"641.4",2141012
"sv020002","sv020002","male",2000,"university","Cir.png","Cir",NA,"五边形","五边形",NA,NA,1,"m","m",0,"mismatch",NA,"formal",NA,1,1,"565.4",2142780
"sv020002","sv020002","male",2000,"university","Pen.png","Pen",NA,"五边形","五边形",NA,NA,1,"n","m",0,"match",NA,"formal",NA,0,0,"551.8",2144548
"sv020002","sv020002","male",2000,"university","Cir.png","Cir",NA,"五边形","五边形",NA,NA,1,"m","m",0,"mismatch",NA,"formal",NA,1,1,"643.1",2146404
"sv020002","sv020002","male",2000,"university","Squ.png","Squ",NA,"三角形","三角形",NA,NA,1,"m","m",0,"mismatch",NA,"formal",NA,1,1,"878.2",2148492
"sv020002","sv020002","male",2000,"university","Pen.png","Pen",NA,"正方形","正方形",NA,NA,1,"m","m",0,"mismatch",NA,"formal",NA,1,1,"642.2",2150340
"sv020002","sv020002","male",2000,"university","Cir.png","Cir",NA,"圆形","圆形",NA,NA,1,"n","n",0,"match",NA,"formal",NA,1,1,"636.2",2152180
"sv020002","sv020002","male",2000,"university","Pen.png","Pen",NA,"五边形","五边形",NA,NA,1,"n","m",0,"match",NA,"formal",NA,0,0,"1039.3",2154428
"sv020002","sv020002","male",2000,"university","Squ.png","Squ",NA,"正方形","正方形",NA,NA,1,"n","n",0,"match",NA,"formal",NA,1,1,"567.3",2156204
"sv020002","sv020002","male",2000,"university","Cir.png","Cir",NA,"五边形","五边形",NA,NA,1,"m","m",0,"mismatch",NA,"formal",NA,1,1,"826.3",2158244
"sv020002","sv020002","male",2000,"university","Cir.png","Cir",NA,"圆形","圆形",NA,NA,1,"n","n",0,"match",NA,"formal",NA,1,1,"592.4",2160044
"sv020002","sv020002","male",2000,"university","Squ.png","Squ",NA,"三角形","三角形",NA,NA,1,"m","m",0,"mismatch",NA,"formal",NA,1,1,"733.9",2161989
"sv020002","sv020002","male",2000,"university","Tri.png","Tri",NA,"三角形","三角形",NA,NA,1,"n","n",0,"match",NA,"formal",NA,1,1,"527.3",2163724
"sv020002","sv020002","male",2000,"university","Squ.png","Squ",NA,"正方形","正方形",NA,NA,1,"n","n",0,"match",NA,"formal",NA,1,1,"593.8",2165524
"sv020002","sv020002","male",2000,"university","Squ.png","Squ",NA,"三角形","三角形",NA,NA,1,"m","n",0,"mismatch",NA,"formal",NA,0,0,"939.4",2167667
"sv020002","sv020002","male",2000,"university","Cir.png","Cir",NA,"圆形","圆形",NA,NA,1,"n","n",0,"match",NA,"formal",NA,1,1,"812.4",2169691
"sv020002","sv020002","male",2000,"university","Tri.png","Tri",NA,"三角形","三角形",NA,NA,1,"n","n",0,"match",NA,"formal",NA,1,1,"591.7",2171499
"sv020002","sv020002","male",2000,"university","Pen.png","Pen",NA,"正方形","正方形",NA,NA,1,"m","m",0,"mismatch",NA,"formal",NA,1,1,"927.7",2173639
"sv020002","sv020002","male",2000,"university","Cir.png","Cir",NA,"五边形","五边形",NA,NA,1,"m","m",0,"mismatch",NA,"formal",NA,1,1,"764.9",2175620
"sv020002","sv020002","male",2000,"university","Tri.png","Tri",NA,"圆形","圆形",NA,NA,1,"m","m",0,"mismatch",NA,"formal",NA,1,1,"1252.9",2178084
"sv020002","sv020002","male",2000,"university","Squ.png","Squ",NA,"三角形","三角形",NA,NA,1,"m","m",0,"mismatch",NA,"formal",NA,1,1,"1302.2",2180596
"sv020002","sv020002","male",2000,"university","Squ.png","Squ",NA,"正方形","正方形",NA,NA,1,"n","m",0,"match",NA,"formal",NA,0,0,"1144.7",2182948
"sv020002","sv020002","male",2000,"university","Tri.png","Tri",NA,"圆形","圆形",NA,NA,1,"m","m",0,"mismatch",NA,"formal",NA,1,1,"1348.2",2185499
"sv020002","sv020002","male",2000,"university","Pen.png","Pen",NA,"五边形","五边形",NA,NA,1,"n","m",0,"match",NA,"formal",NA,0,0,"702.2",2187412
"sv020002","sv020002","male",2000,"university","Tri.png","Tri",NA,"三角形","三角形",NA,NA,1,"n","n",0,"match",NA,"formal",NA,1,1,"605",2900236
"sv020002","sv020002","male",2000,"university","Tri.png","Tri",NA,"圆形","圆形",NA,NA,1,"m","m",0,"mismatch",NA,"formal",NA,1,1,"648.8",2902100
"sv020002","sv020002","male",2000,"university","Squ.png","Squ",NA,"正方形","正方形",NA,NA,1,"n","n",0,"match",NA,"formal",NA,1,1,"625.8",2903955
"sv020002","sv020002","male",2000,"university","Pen.png","Pen",NA,"正方形","正方形",NA,NA,1,"m","m",0,"mismatch",NA,"formal",NA,1,1,"566.1",2905739
"sv020002","sv020002","male",2000,"university","Cir.png","Cir",NA,"圆形","圆形",NA,NA,1,"n","n",0,"match",NA,"formal",NA,1,1,"512",2907460
"sv020002","sv020002","male",2000,"university","Pen.png","Pen",NA,"正方形","正方形",NA,NA,1,"m","m",0,"mismatch",NA,"formal",NA,1,1,"572.4",2909236
"sv020002","sv020002","male",2000,"university","Cir.png","Cir",NA,"五边形","五边形",NA,NA,1,"m","m",0,"mismatch",NA,"formal",NA,1,1,"889",2911348
"sv020002","sv020002","male",2000,"university","Tri.png","Tri",NA,"三角形","三角形",NA,NA,1,"n","n",0,"match",NA,"formal",NA,1,1,"596",2913155
"sv020002","sv020002","male",2000,"university","Squ.png","Squ",NA,"正方形","正方形",NA,NA,1,"n","n",0,"match",NA,"formal",NA,1,1,"526.5",2914892
"sv020002","sv020002","male",2000,"university","Cir.png","Cir",NA,"圆形","圆形",NA,NA,1,"n","n",0,"match",NA,"formal",NA,1,1,"548.2",2916660
"sv020002","sv020002","male",2000,"university","Pen.png","Pen",NA,"五边形","五边形",NA,NA,1,"n","m",0,"match",NA,"formal",NA,0,0,"1042.8",2918915
"sv020002","sv020002","male",2000,"university","Squ.png","Squ",NA,"三角形","三角形",NA,NA,1,"m","m",0,"mismatch",NA,"formal",NA,1,1,"900.2",2921020
"sv020002","sv020002","male",2000,"university","Tri.png","Tri",NA,"圆形","圆形",NA,NA,1,"m","m",0,"mismatch",NA,"formal",NA,1,1,"1314.8",2923548
"sv020002","sv020002","male",2000,"university","Cir.png","Cir",NA,"圆形","圆形",NA,NA,1,"n","n",0,"match",NA,"formal",NA,1,1,"656.8",2925412
"sv020002","sv020002","male",2000,"university","Tri.png","Tri",NA,"圆形","圆形",NA,NA,1,"m","m",0,"mismatch",NA,"formal",NA,1,1,"1451.7",2928068
"sv020002","sv020002","male",2000,"university","Squ.png","Squ",NA,"三角形","三角形",NA,NA,1,"m","m",0,"mismatch",NA,"formal",NA,1,1,"1292",2930571
"sv020002","sv020002","male",2000,"university","Squ.png","Squ",NA,"正方形","正方形",NA,NA,1,"n","n",0,"match",NA,"formal",NA,1,1,"1105.8",2932883
"sv020002","sv020002","male",2000,"university","Cir.png","Cir",NA,"五边形","五边形",NA,NA,1,"m","m",0,"mismatch",NA,"formal",NA,1,1,"670.9",2934763
"sv020002","sv020002","male",2000,"university","Pen.png","Pen",NA,"正方形","正方形",NA,NA,1,"m","m",0,"mismatch",NA,"formal",NA,1,1,"1815.8",2937795
